stimuli_images,face,demoReps.thisRepN,demoReps.thisTrialN,demoReps.thisN,demoReps.thisIndex,stimuli,demo_face,trials.thisRepN,trials.thisTrialN,trials.thisN,trials.thisIndex,Instruction.started,instruction_resp.started,instruction_resp.keys,instruction_resp.rt,startDemo.started,demoInstruction.started,startDemo.stopped,demoInstruction.stopped,demoFixation.started,demoImage.started,demoResp.started,demoFixation.stopped,demoResp.keys,demoResp.rt,Feedback.started,demoLoop.started,demoLoopResp.started,Feedback.stopped,demoLoopResp.keys,demoLoopResp.rt,ExpInstruc.started,continueExp.started,continueExp.keys,continueExp.rt,fixation.started,expImg.started,exp_resp.started,fixation.stopped,exp_resp.keys,exp_resp.rt,expFeedback.started,expFeedback.stopped,participant,session,date,expName,psychopyVersion,frameRate,
,,,,,,,,,,,,12.12867279999773,12.12867279999773,y,0.5447779999958584,,,,,,,,,,,,,,,,,,,,,,,,,,,,,218225,001,2023-05-29_00h32.17.437,pareidolia,2023.1.2,59.92893627217672,
,,,,,,,,,,,,,,,,12.807212799991248,13.679389600001741,13.812636799993925,14.683609699990484,14.683609699990484,15.179652299993904,15.179652299993904,15.196568500003195,y,0.2633118999947328,15.51916739999433,16.514150999995763,16.514150999995763,16.53008489999047,y,0.3561543999967398,16.9618172999908,16.9618172999908,y,1.9116339000029257,,,,,,,,,218225,001,2023-05-29_00h32.17.437,pareidolia,2023.1.2,59.92893627217672,
images/ANF - Cat.jpg,n,,,,,,,0,0,0,31,,,,,,,,,,,,,,,,,,,,,,,,,18.915029299998423,19.38050569999905,19.38050569999905,19.4298764999985,y,1.0925788000022294,20.49649109999882,21.496906300002593,218225,001,2023-05-29_00h32.17.437,pareidolia,2023.1.2,59.92893627217672,
images/F - Mugs.jpg,y,,,,,,,0,1,1,3,,,,,,,,,,,,,,,,,,,,,,,,,21.496906300002593,21.980649099990842,21.980649099990842,21.99672899999132,y,0.5210660000011558,22.529604800001835,23.65403019999212,218225,001,2023-05-29_00h32.17.437,pareidolia,2023.1.2,59.92893627217672,
images/ANF - HoshinoAI.png,n,,,,,,,0,2,2,42,,,,,,,,,,,,,,,,,,,,,,,,,23.65403019999212,24.03084829999716,24.03084829999716,24.164096799999243,y,0.584594100000686,24.695217400003457,,218225,001,2023-05-29_00h32.17.437,pareidolia,2023.1.2,59.92893627217672,
images/ANF - Duck.png,n,,,,,,,0,3,3,40,,,,,,,,,,,,,,,,,,,,,,,,,25.663329199989676,26.14724049999495,26.14724049999495,26.163809899997432,n,1.1544737999938661,27.330257900001016,28.347488999992493,218225,001,2023-05-29_00h32.17.437,pareidolia,2023.1.2,59.92893627217672,
images/AF - Otter.jpg,y,,,,,,,0,4,4,28,,,,,,,,,,,,,,,,,,,,,,,,,28.347488999992493,28.83061639999505,28.83061639999505,28.8473027,y,0.9627586999995401,29.81369480000285,30.8140379999968,218225,001,2023-05-29_00h32.17.437,pareidolia,2023.1.2,59.92893627217672,
images/NF - House.jpg,n,,,,,,,0,5,5,14,,,,,,,,,,,,,,,,,,,,,,,,,30.8140379999968,31.313891600002535,31.313891600002535,31.313891600002535,n,0.8437872000067728,32.180293500001426,33.259516899997834,218225,001,2023-05-29_00h32.17.437,pareidolia,2023.1.2,59.92893627217672,
images/ANF - Aquamarine.png,n,,,,,,,0,6,6,39,,,,,,,,,,,,,,,,,,,,,,,,,33.259516899997834,33.68095159999211,33.68095159999211,33.76412859999982,n,1.6039274000067962,35.313436600001296,36.332128699999885,218225,001,2023-05-29_00h32.17.437,pareidolia,2023.1.2,59.92893627217672,
images/ANF - girl 2.png,n,,,,,,,0,7,7,41,,,,,,,,,,,,,,,,,,,,,,,,,36.332128699999885,36.81418169999961,36.81418169999961,36.84775619998982,n,2.952640000003157,39.79702469999029,40.7978349999903,218225,001,2023-05-29_00h32.17.437,pareidolia,2023.1.2,59.92893627217672,
images/ANF - Otter.jpg,n,,,,,,,0,8,8,35,,,,,,,,,,,,,,,,,,,,,,,,,40.7978349999903,41.2975485999923,41.2975485999923,41.2975485999923,n,1.339772699997411,42.66375849999895,43.74423640000168,218225,001,2023-05-29_00h32.17.437,pareidolia,2023.1.2,59.92893627217672,
images/AF - HoshinoAI.png,y,,,,,,,0,9,9,23,,,,,,,,,,,,,,,,,,,,,,,,,43.74423640000168,44.164460899992264,44.164460899992264,44.24758300000394,n,0.4447290999960387,44.630669999998645,45.64806849999877,218225,001,2023-05-29_00h32.17.437,pareidolia,2023.1.2,59.92893627217672,
images/AF - Panda.jpg,y,,,,,,,0,10,10,29,,,,,,,,,,,,,,,,,,,,,,,,,45.64806849999877,46.13065649999771,46.13065649999771,46.14701810000406,n,0.2416092000057688,46.39711520000128,47.396959199992125,218225,001,2023-05-29_00h32.17.437,pareidolia,2023.1.2,59.92893627217672,
images/NF - Mugs.jpg,n,,,,,,,0,11,11,16,,,,,,,,,,,,,,,,,,,,,,,,,47.396959199992125,47.88055419999,47.88055419999,47.89734060000046,n,0.2331685999961337,48.130546999993385,49.14759989999584,218225,001,2023-05-29_00h32.17.437,pareidolia,2023.1.2,59.92893627217672,
images/NF - Chilli.png,n,,,,,,,0,12,12,38,,,,,,,,,,,,,,,,,,,,,,,,,49.14759989999584,49.63094269999419,49.63094269999419,49.64737979999336,n,0.35132460000750143,50.01387959999556,51.014462399994954,218225,001,2023-05-29_00h32.17.437,pareidolia,2023.1.2,59.92893627217672,
images/F - Coffee.png,y,,,,,,,0,13,13,1,,,,,,,,,,,,,,,,,,,,,,,,,51.014462399994954,51.51431099999172,51.51431099999172,51.51431099999172,n,0.41303830000106245,51.94754949999333,,218225,001,2023-05-29_00h32.17.437,pareidolia,2023.1.2,59.92893627217672,
images/F - Chilli.png,y,,,,,,,0,14,14,37,,,,,,,,,,,,,,,,,,,,,,,,,52.967830499997945,53.43417919999047,53.43417919999047,53.46708170000056,n,0.2907286999979988,53.74707169999601,54.747529200001736,218225,001,2023-05-29_00h32.17.437,pareidolia,2023.1.2,59.92893627217672,
images/AF - girl 1.png,y,,,,,,,0,15,15,21,,,,,,,,,,,,,,,,,,,,,,,,,54.747529200001736,55.2472279999929,55.2472279999929,55.2472279999929,n,0.2448285999998916,55.51351409999188,56.514655199993285,218225,001,2023-05-29_00h32.17.437,pareidolia,2023.1.2,59.92893627217672,
images/NF - Coffee.jpg,n,,,,,,,0,16,16,13,,,,,,,,,,,,,,,,,,,,,,,,,56.514655199993285,56.997618099994725,56.997618099994725,57.01462879999599,n,0.42400900000939146,57.447112499998184,58.464068899993435,218225,001,2023-05-29_00h32.17.437,pareidolia,2023.1.2,59.92893627217672,
images/ANF- Dance.png,n,,,,,,,0,17,17,36,,,,,,,,,,,,,,,,,,,,,,,,,58.464068899993435,58.93132249999326,58.93132249999326,58.96335679999902,n,0.5001304000033997,59.46399389998987,60.46407570000156,218225,001,2023-05-29_00h32.17.437,pareidolia,2023.1.2,59.92893627217672,
images/F - Tree.jpg,y,,,,,,,0,18,18,6,,,,,,,,,,,,,,,,,,,,,,,,,60.46407570000156,60.94729969999753,60.94729969999753,60.96406929999648,n,0.0881937999947695,61.064230399992084,62.063770099994144,218225,001,2023-05-29_00h32.17.437,pareidolia,2023.1.2,59.92893627217672,
images/AF - Duck.png,y,,,,,,,0,19,19,25,,,,,,,,,,,,,,,,,,,,,,,,,62.063770099994144,62.54787959999521,62.54787959999521,62.56458140000177,n,0.010704800006351434,62.58027079999738,63.5802854999929,218225,001,2023-05-29_00h32.17.437,pareidolia,2023.1.2,59.92893627217672,
images/ANF - Fox.jpg,n,,,,,,,0,20,20,32,,,,,,,,,,,,,,,,,,,,,,,,,63.5802854999929,64.08021339999686,64.08021339999686,64.08021339999686,n,0.10369430000719149,64.214135599992,65.28337829999509,218225,001,2023-05-29_00h32.17.437,pareidolia,2023.1.2,59.92893627217672,
images/AF - Aquamarine.png,y,,,,,,,0,21,21,20,,,,,,,,,,,,,,,,,,,,,,,,,65.28337829999509,65.69788880000124,65.69788880000124,65.79822899999272,n,0.1228283999953419,65.8476159999991,66.88289989999612,218225,001,2023-05-29_00h32.17.437,pareidolia,2023.1.2,59.92893627217672,
images/AF - girl 2.png,y,,,,,,,0,22,22,22,,,,,,,,,,,,,,,,,,,,,,,,,66.88289989999612,67.34761759999674,67.34761759999674,67.39763110000058,n,0.14716120000230148,67.5138930999965,68.51495149999391,218225,001,2023-05-29_00h32.17.437,pareidolia,2023.1.2,59.92893627217672,
images/NF - Elec-Plug.jpg,n,,,,,,,0,23,23,10,,,,,,,,,,,,,,,,,,,,,,,,,68.51495149999391,69.01454459999513,69.01454459999513,69.01454459999513,n,0.0904889999947045,69.13097769999877,70.14865180000197,218225,001,2023-05-29_00h32.17.437,pareidolia,2023.1.2,59.92893627217672,
images/ANF - Panda.jpg,n,,,,,,,0,24,24,43,,,,,,,,,,,,,,,,,,,,,,,,,70.14865180000197,70.61446769999748,70.61446769999748,70.64744990000327,n,0.1971486999973422,70.83079029999499,71.83088449999923,218225,001,2023-05-29_00h32.17.437,pareidolia,2023.1.2,59.92893627217672,
images/AF - Fox.jpg,y,,,,,,,0,25,25,26,,,,,,,,,,,,,,,,,,,,,,,,,71.83088449999923,72.33141800000158,72.33141800000158,72.33141800000158,n,0.007078199996612966,72.36419539999042,73.36407989999861,218225,001,2023-05-29_00h32.17.437,pareidolia,2023.1.2,59.92893627217672,
images/NF - Tiang.jpg,n,,,,,,,0,26,26,18,,,,,,,,,,,,,,,,,,,,,,,,,73.36407989999861,73.86451379999926,73.86451379999926,73.86451379999926,n,0.02855630000703968,73.91425410000375,74.93210320000071,218225,001,2023-05-29_00h32.17.437,pareidolia,2023.1.2,59.92893627217672,
images/F - Elec-Plug.jpg,y,,,,,,,0,27,27,2,,,,,,,,,,,,,,,,,,,,,,,,,74.93210320000071,75.39783570000145,75.39783570000145,75.43108609999763,n,0.17918639999697916,75.5975172999897,76.61446189999697,218225,001,2023-05-29_00h32.17.437,pareidolia,2023.1.2,59.92893627217672,
images/NF - Vege.png,n,,,,,,,0,28,28,19,,,,,,,,,,,,,,,,,,,,,,,,,76.61446189999697,77.0807974999916,77.0807974999916,77.11463820000063,n,0.19986569999309722,77.29791219999606,,218225,001,2023-05-29_00h32.17.437,pareidolia,2023.1.2,59.92893627217672,
images/NF - Bag.jpg,n,,,,,,,0,29,29,12,,,,,,,,,,,,,,,,,,,,,,,,,78.31424479999987,78.79831299999205,78.79831299999205,78.81439829998999,n,0.0039548999920953065,78.8306978999899,79.83139249999658,218225,001,2023-05-29_00h32.17.437,pareidolia,2023.1.2,59.92893627217672,
images/F - Tiang.jpg,y,,,,,,,0,30,30,5,,,,,,,,,,,,,,,,,,,,,,,,,79.83139249999658,80.31500229999074,80.31500229999074,80.33125999999174,n,0.2168321999924956,80.56443109999236,81.56492740000249,218225,001,2023-05-29_00h32.17.437,pareidolia,2023.1.2,59.92893627217672,
images/F - Bag 2.jpg,y,,,,,,,0,31,31,7,,,,,,,,,,,,,,,,,,,,,,,,,81.56492740000249,82.06466059999366,82.06466059999366,82.06466059999366,n,0.0030017999961273745,82.09761799999978,83.11463939999521,218225,001,2023-05-29_00h32.17.437,pareidolia,2023.1.2,59.92893627217672,
images/AF- Dance.png,y,,,,,,,0,32,32,30,,,,,,,,,,,,,,,,,,,,,,,,,83.11463939999521,83.58123519999208,83.58123519999208,83.61446889999206,n,0.20306210000126157,83.81435459999193,84.8146085999906,218225,001,2023-05-29_00h32.17.437,pareidolia,2023.1.2,59.92893627217672,
images/AF - Cat.jpg,y,,,,,,,0,33,33,24,,,,,,,,,,,,,,,,,,,,,,,,,84.8146085999906,85.29866200000106,85.29866200000106,85.31477660000382,n,0.004752900000312366,85.33080419999897,86.33134259999497,218225,001,2023-05-29_00h32.17.437,pareidolia,2023.1.2,59.92893627217672,
images/NF - Bag 2.jpg,n,,,,,,,0,34,34,11,,,,,,,,,,,,,,,,,,,,,,,,,86.33134259999497,86.83153909999237,86.83153909999237,86.83153909999237,n,0.030582899998989888,86.88097800000105,87.89795420000155,218225,001,2023-05-29_00h32.17.437,pareidolia,2023.1.2,59.92893627217672,
images/NF - Tree.jpg,n,,,,,,,0,35,35,15,,,,,,,,,,,,,,,,,,,,,,,,,87.89795420000155,88.36477929999819,88.36477929999819,88.39797629999521,n,0.07228069999837317,88.46444569999585,89.49057100000209,218225,001,2023-05-29_00h32.17.437,pareidolia,2023.1.2,59.92893627217672,
images/F - House.jpg,y,,,,,,,0,36,36,8,,,,,,,,,,,,,,,,,,,,,,,,,89.49057100000209,89.9648171000008,89.9648171000008,89.99776610000117,n,0.005080899994936772,89.99776610000117,90.99801039999875,218225,001,2023-05-29_00h32.17.437,pareidolia,2023.1.2,59.92893627217672,
images/F - Vege.jpg,y,,,,,,,0,37,37,9,,,,,,,,,,,,,,,,,,,,,,,,,90.99801039999875,91.49798469999223,91.49798469999223,91.49798469999223,n,0.2112621999986004,91.73091519999434,92.7485633000033,218225,001,2023-05-29_00h32.17.437,pareidolia,2023.1.2,59.92893627217672,
images/F - Bag.jpg,y,,,,,,,0,38,38,0,,,,,,,,,,,,,,,,,,,,,,,,,92.7485633000033,93.23153799999272,93.23153799999272,93.24795239999366,n,0.0036567999923136085,93.26421969999501,94.28155369999877,218225,001,2023-05-29_00h32.17.437,pareidolia,2023.1.2,59.92893627217672,
images/AF - Knight.png,y,,,,,,,0,39,39,27,,,,,,,,,,,,,,,,,,,,,,,,,94.28155369999877,94.74829960000352,94.74829960000352,94.78195819999382,n,0.20793600000615697,94.98104329999478,95.98102340000332,218225,001,2023-05-29_00h32.17.437,pareidolia,2023.1.2,59.92893627217672,
images/NF - Onion.jpg,n,,,,,,,0,40,40,17,,,,,,,,,,,,,,,,,,,,,,,,,95.98102340000332,96.48136579999118,96.48136579999118,96.48136579999118,n,0.04014199999801349,96.54784309999377,97.5477666999941,218225,001,2023-05-29_00h32.17.437,pareidolia,2023.1.2,59.92893627217672,
images/ANF - girl 1.png,n,,,,,,,0,41,41,33,,,,,,,,,,,,,,,,,,,,,,,,,97.5477666999941,98.04822519999288,98.04822519999288,98.04822519999288,n,0.1875284000125248,98.26445459999377,99.28133319999324,218225,001,2023-05-29_00h32.17.437,pareidolia,2023.1.2,59.92893627217672,
images/ANF - knight.png,n,,,,,,,0,42,42,34,,,,,,,,,,,,,,,,,,,,,,,,,99.28133319999324,99.7650200999924,99.7650200999924,99.78159040000173,n,0.022144300004583783,99.81452359999821,100.81510079999862,218225,001,2023-05-29_00h32.17.437,pareidolia,2023.1.2,59.92893627217672,
images/F - Onion.jpg,y,,,,,,,0,43,43,4,,,,,,,,,,,,,,,,,,,,,,,,,100.81510079999862,101.29855900000257,101.29855900000257,101.31448089999321,n,0.08609560001059435,101.41444659999979,102.43197320000036,218225,001,2023-05-29_00h32.17.437,pareidolia,2023.1.2,59.92893627217672,
images/ANF - girl 2.png,n,,,,,,,1,0,44,41,,,,,,,,,,,,,,,,,,,,,,,,,102.43197320000036,102.91500239999732,102.91500239999732,102.93139159999555,n,0.227432299987413,103.16488260000187,104.18165430000226,218225,001,2023-05-29_00h32.17.437,pareidolia,2023.1.2,59.92893627217672,
images/ANF - knight.png,n,,,,,,,1,1,45,34,,,,,,,,,,,,,,,,,,,,,,,,,104.18165430000226,104.64813800000411,104.64813800000411,104.68134789999749,n,0.10351230000378564,104.78153659999953,105.79994450000231,218225,001,2023-05-29_00h32.17.437,pareidolia,2023.1.2,59.92893627217672,
images/F - Elec-Plug.jpg,y,,,,,,,1,2,46,2,,,,,,,,,,,,,,,,,,,,,,,,,105.79994450000231,106.28177159999905,106.28177159999905,106.3155773000035,n,0.24027880000357982,106.54809830000158,107.54845999999088,218225,001,2023-05-29_00h32.17.437,pareidolia,2023.1.2,59.92893627217672,
images/ANF - Otter.jpg,n,,,,,,,1,3,47,35,,,,,,,,,,,,,,,,,,,,,,,,,107.54845999999088,108.04811439999321,108.04811439999321,108.04811439999321,n,0.19993740000063553,108.26475469999423,109.26521149999462,218225,001,2023-05-29_00h32.17.437,pareidolia,2023.1.2,59.92893627217672,
images/F - Chilli.png,y,,,,,,,1,4,48,37,,,,,,,,,,,,,,,,,,,,,,,,,109.26521149999462,109.76493799999298,109.76493799999298,109.76493799999298,n,0.07593150000320747,109.86431229999289,110.8816974999936,218225,001,2023-05-29_00h32.17.437,pareidolia,2023.1.2,59.92893627217672,
images/NF - Tree.jpg,n,,,,,,,1,5,49,15,,,,,,,,,,,,,,,,,,,,,,,,,110.8816974999936,111.36458280000079,111.36458280000079,111.38157440000214,n,0.0061560000031022355,111.39804649999132,112.39879649999784,218225,001,2023-05-29_00h32.17.437,pareidolia,2023.1.2,59.92893627217672,
images/F - Bag 2.jpg,y,,,,,,,1,6,50,7,,,,,,,,,,,,,,,,,,,,,,,,,112.39879649999784,112.8849174999923,112.8849174999923,112.90165400000114,n,0.13695429998915642,113.05104859999847,,218225,001,2023-05-29_00h32.17.437,pareidolia,2023.1.2,59.92893627217672,
,,,,,,,,,,,,,,,,,,,,,,,,,,,,,,,,,,,,114.08165480000025,114.54815849999432,114.54815849999432,114.58130179998989,n,0.09245319999172352,114.66409120000026,,,,,,,,
