stimuli_images,face,demoReps.thisRepN,demoReps.thisTrialN,demoReps.thisN,demoReps.thisIndex,stimuli,demo_face,trials.thisRepN,trials.thisTrialN,trials.thisN,trials.thisIndex,Instruction.started,instruction_resp.started,instruction_resp.keys,instruction_resp.rt,startDemo.started,demoInstruction.started,startDemo.stopped,demoFixation.started,demoInstruction.stopped,demoFixation.stopped,demoImage.started,demoResp.started,demoResp.keys,demoResp.rt,Feedback.started,Feedback.stopped,demoLoop.started,demoLoopResp.started,demoLoopResp.keys,demoLoopResp.rt,ExpInstruc.started,continueExp.started,continueExp.keys,continueExp.rt,fixation.started,expImg.started,exp_resp.started,fixation.stopped,expImg.stopped,exp_resp.stopped,exp_resp.keys,expFeedback.started,expFeedback.stopped,exp_resp.rt,goodbye.started,goodbye_resp.started,goodbye_resp.keys,goodbye_resp.rt,participant,session,date,expName,psychopyVersion,frameRate,
,,,,,,,,,,,,7.096586899991962,7.096586899991962,y,0.9648191000160296,,,,,,,,,,,,,,,,,,,,,,,,,,,,,,,,,,,540650,001,2023-05-29_00h39.20.399,pareidolia,2023.1.2,59.46508775397142,
,,,,,,,,,,,,,,,,8.10758649998752,9.082099299994297,9.115090699997381,10.081198599989875,10.098529599999893,10.582420799997635,10.582420799997635,10.582420799997635,y,0.36335530001088046,10.96490319998702,11.964891699986765,11.964891699986765,11.964891699986765,y,0.8938382000051206,12.881722699996317,12.881722699996317,y,1.341531300015049,,,,,,,,,,,,,,,540650,001,2023-05-29_00h39.20.399,pareidolia,2023.1.2,59.46508775397142,
images/F - Bag.jpg,y,,,,,,,0,0,0,0,,,,,,,,,,,,,,,,,,,,,,,,,14.264646799987531,14.732273999994504,14.732273999994504,14.76547969999956,17.731755399989197,17.731755399989197,None,17.731755399989197,18.81475189999037,,,,,,540650,001,2023-05-29_00h39.20.399,pareidolia,2023.1.2,59.46508775397142,
images/AF - HoshinoAI.png,y,,,,,,,0,1,1,23,,,,,,,,,,,,,,,,,,,,,,,,,18.81475189999037,19.232388199990964,19.232388199990964,19.315727699999115,22.231549099989934,22.231549099989934,None,22.231549099989934,23.232292599990615,,,,,,540650,001,2023-05-29_00h39.20.399,pareidolia,2023.1.2,59.46508775397142,
images/AF - Cat.jpg,y,,,,,,,0,2,2,24,,,,,,,,,,,,,,,,,,,,,,,,,23.232292599990615,23.73178149999876,23.73178149999876,23.73178149999876,26.7321549999906,26.7321549999906,None,26.7321549999906,27.73231059999671,,,,,,540650,001,2023-05-29_00h39.20.399,pareidolia,2023.1.2,59.46508775397142,
images/ANF - Duck.png,n,,,,,,,0,3,3,40,,,,,,,,,,,,,,,,,,,,,,,,,27.73231059999671,28.23239009999088,28.23239009999088,28.23239009999088,,,y,28.332343799993396,,0.0801359000033699,,,,,540650,001,2023-05-29_00h39.20.399,pareidolia,2023.1.2,59.46508775397142,
images/F - Vege.jpg,y,,,,,,,0,4,4,9,,,,,,,,,,,,,,,,,,,,,,,,,29.33243379999476,29.81547979998868,29.81547979998868,29.832385299989255,,,y,30.16513889998896,31.17959859999246,0.31701020001492,,,,,540650,001,2023-05-29_00h39.20.399,pareidolia,2023.1.2,59.46508775397142,
images/AF - Panda.jpg,y,,,,,,,0,5,5,29,,,,,,,,,,,,,,,,,,,,,,,,,31.17959859999246,31.66736909998872,31.66736909998872,31.68505759999971,,,y,31.699225199990906,32.78061319999688,0.012193700022180565,,,,,540650,001,2023-05-29_00h39.20.399,pareidolia,2023.1.2,59.46508775397142,
images/ANF - HoshinoAI.png,n,,,,,,,0,6,6,42,,,,,,,,,,,,,,,,,,,,,,,,,32.78061319999688,33.19851099999505,33.19851099999505,33.28242489999684,36.198580199998105,36.198580199998105,None,36.198580199998105,37.19874059999711,,,,,,540650,001,2023-05-29_00h39.20.399,pareidolia,2023.1.2,59.46508775397142,
images/ANF - Fox.jpg,n,,,,,,,0,7,7,32,,,,,,,,,,,,,,,,,,,,,,,,,37.19874059999711,37.699049399991054,37.699049399991054,37.699049399991054,40.69931579999684,40.69931579999684,None,40.69931579999684,41.83366179998848,,,,,,540650,001,2023-05-29_00h39.20.399,pareidolia,2023.1.2,59.46508775397142,
images/AF - Aquamarine.png,y,,,,,,,0,8,8,20,,,,,,,,,,,,,,,,,,,,,,,,,41.83366179998848,42.19935239999904,42.19935239999904,42.332934499994735,,,None,45.20220449999033,,,,,,,540650,001,2023-05-29_00h39.20.399,pareidolia,2023.1.2,59.46508775397142,
images/ANF - Aquamarine.png,n,,,,,,,0,9,9,39,,,,,,,,,,,,,,,,,,,,,,,,,46.29298889999336,46.70058209999115,46.70058209999115,46.799654399990686,49.70065239998803,49.70065239998803,None,49.70065239998803,,,,,,,540650,001,2023-05-29_00h39.20.399,pareidolia,2023.1.2,59.46508775397142,
images/AF - Knight.png,y,,,,,,,0,10,10,27,,,,,,,,,,,,,,,,,,,,,,,,,50.730654499988304,51.199214699998265,51.199214699998265,51.23200399999041,54.198896699992474,54.198896699992474,None,54.198896699992474,55.19902239998919,,,,,,540650,001,2023-05-29_00h39.20.399,pareidolia,2023.1.2,59.46508775397142,
images/ANF - girl 1.png,n,,,,,,,0,11,11,33,,,,,,,,,,,,,,,,,,,,,,,,,55.19902239998919,55.68093649999355,55.68093649999355,55.71589459999814,58.68505989998812,58.68505989998812,None,58.69946199998958,59.69936269999016,,,,,,540650,001,2023-05-29_00h39.20.399,pareidolia,2023.1.2,59.46508775397142,
images/NF - Bag 2.jpg,n,,,,,,,0,12,12,11,,,,,,,,,,,,,,,,,,,,,,,,,59.69936269999016,60.199236299988115,60.199236299988115,60.199236299988115,63.19900659999985,63.19900659999985,None,63.19900659999985,64.21347930000047,,,,,,540650,001,2023-05-29_00h39.20.399,pareidolia,2023.1.2,59.46508775397142,
images/F - Chilli.png,y,,,,,,,0,13,13,37,,,,,,,,,,,,,,,,,,,,,,,,,64.21347930000047,64.69950879999669,64.69950879999669,64.71621419998701,67.70125459998962,67.70125459998962,None,67.70125459998962,,,,,,,540650,001,2023-05-29_00h39.20.399,pareidolia,2023.1.2,59.46508775397142,
images/ANF - Otter.jpg,n,,,,,,,0,14,14,35,,,,,,,,,,,,,,,,,,,,,,,,,68.7158330999955,69.19903319999867,69.19903319999867,69.21590260000085,72.19942669999728,72.19942669999728,None,72.19942669999728,73.19970109999122,,,,,,540650,001,2023-05-29_00h39.20.399,pareidolia,2023.1.2,59.46508775397142,
images/AF - Fox.jpg,y,,,,,,,0,15,15,26,,,,,,,,,,,,,,,,,,,,,,,,,73.19970109999122,73.7020663999865,73.7020663999865,73.7020663999865,76.69941299999482,76.69941299999482,None,76.69941299999482,77.72645579998789,,,,,,540650,001,2023-05-29_00h39.20.399,pareidolia,2023.1.2,59.46508775397142,
images/F - House.jpg,y,,,,,,,0,16,16,8,,,,,,,,,,,,,,,,,,,,,,,,,77.72645579998789,78.19977609999478,78.19977609999478,78.23269749998872,81.19887779999408,81.19887779999408,None,81.19887779999408,82.19976789999055,,,,,,540650,001,2023-05-29_00h39.20.399,pareidolia,2023.1.2,59.46508775397142,
images/NF - Coffee.jpg,n,,,,,,,0,17,17,13,,,,,,,,,,,,,,,,,,,,,,,,,82.19976789999055,82.70182329999807,82.70182329999807,82.70182329999807,,,None,85.71810939999705,,,,,,,540650,001,2023-05-29_00h39.20.399,pareidolia,2023.1.2,59.46508775397142,
images/ANF - Cat.jpg,n,,,,,,,0,18,18,31,,,,,,,,,,,,,,,,,,,,,,,,,86.71689549999428,87.19968629999494,87.19968629999494,87.21657089999644,90.19931379999616,90.19931379999616,None,90.19931379999616,91.19962709999527,,,,,,540650,001,2023-05-29_00h39.20.399,pareidolia,2023.1.2,59.46508775397142,
images/NF - Tiang.jpg,n,,,,,,,0,19,19,18,,,,,,,,,,,,,,,,,,,,,,,,,91.19962709999527,91.68434909998905,91.68434909998905,91.69982080000045,94.68350459999056,94.68350459999056,None,94.70042629999807,95.71415709999565,,,,,,540650,001,2023-05-29_00h39.20.399,pareidolia,2023.1.2,59.46508775397142,
images/F - Tree.jpg,y,,,,,,,0,20,20,6,,,,,,,,,,,,,,,,,,,,,,,,,95.71415709999565,96.20002720000048,96.20002720000048,96.21623279999767,99.1996885999979,99.1996885999979,None,99.1996885999979,100.21423899999354,,,,,,540650,001,2023-05-29_00h39.20.399,pareidolia,2023.1.2,59.46508775397142,
images/ANF- Dance.png,n,,,,,,,0,21,21,36,,,,,,,,,,,,,,,,,,,,,,,,,100.21423899999354,100.69794129999354,100.69794129999354,100.71646709999186,103.7012173999974,103.7012173999974,None,103.7012173999974,,,,,,,540650,001,2023-05-29_00h39.20.399,pareidolia,2023.1.2,59.46508775397142,
images/F - Onion.jpg,y,,,,,,,0,22,22,4,,,,,,,,,,,,,,,,,,,,,,,,,104.72021979998681,105.20365469998796,105.20365469998796,105.22065659999498,,,None,108.21613639999123,,,,,,,540650,001,2023-05-29_00h39.20.399,pareidolia,2023.1.2,59.46508775397142,
images/F - Coffee.png,y,,,,,,,0,23,23,1,,,,,,,,,,,,,,,,,,,,,,,,,109.21698529999412,109.69968959999096,109.69968959999096,109.71892379999917,112.70057579998684,112.70057579998684,None,112.70057579998684,113.71396699998877,,,,,,540650,001,2023-05-29_00h39.20.399,pareidolia,2023.1.2,59.46508775397142,
images/AF- Dance.png,y,,,,,,,0,24,24,30,,,,,,,,,,,,,,,,,,,,,,,,,113.71396699998877,114.20141199999489,114.20141199999489,114.21759429998929,,,None,117.21660309999424,,,,,,,540650,001,2023-05-29_00h39.20.399,pareidolia,2023.1.2,59.46508775397142,
images/NF - House.jpg,n,,,,,,,0,25,25,14,,,,,,,,,,,,,,,,,,,,,,,,,118.21710149999126,118.69872549999855,118.69872549999855,118.73429189999297,121.70221899999888,121.70221899999888,None,121.70221899999888,,,,,,,540650,001,2023-05-29_00h39.20.399,pareidolia,2023.1.2,59.46508775397142,
images/NF - Chilli.png,n,,,,,,,0,26,26,38,,,,,,,,,,,,,,,,,,,,,,,,,122.73137159999169,123.20049299999664,123.20049299999664,123.23348649998661,126.19995229999768,126.19995229999768,None,126.19995229999768,127.20060089998879,,,,,,540650,001,2023-05-29_00h39.20.399,pareidolia,2023.1.2,59.46508775397142,
images/F - Bag 2.jpg,y,,,,,,,0,27,27,7,,,,,,,,,,,,,,,,,,,,,,,,,127.20060089998879,127.70014139999694,127.70014139999694,127.70014139999694,130.70002789999126,130.70002789999126,None,130.70002789999126,131.70002799999202,,,,,,540650,001,2023-05-29_00h39.20.399,pareidolia,2023.1.2,59.46508775397142,
images/NF - Onion.jpg,n,,,,,,,0,28,28,17,,,,,,,,,,,,,,,,,,,,,,,,,131.70002799999202,132.2001656999928,132.2001656999928,132.2001656999928,135.2003684999945,135.2003684999945,None,135.2003684999945,136.2142809999932,,,,,,540650,001,2023-05-29_00h39.20.399,pareidolia,2023.1.2,59.46508775397142,
images/NF - Tree.jpg,n,,,,,,,0,29,29,15,,,,,,,,,,,,,,,,,,,,,,,,,136.2142809999932,136.68207399999665,136.68207399999665,136.7171687999944,139.683315199989,139.683315199989,None,139.701986199987,,,,,,,540650,001,2023-05-29_00h39.20.399,pareidolia,2023.1.2,59.46508775397142,
images/AF - Duck.png,y,,,,,,,0,30,30,25,,,,,,,,,,,,,,,,,,,,,,,,,140.73087419998774,141.2005277999997,141.2005277999997,141.23349989998678,144.20020559999102,144.20020559999102,None,144.20020559999102,145.20099939999636,,,,,,540650,001,2023-05-29_00h39.20.399,pareidolia,2023.1.2,59.46508775397142,
images/NF - Bag.jpg,n,,,,,,,0,31,31,12,,,,,,,,,,,,,,,,,,,,,,,,,145.20099939999636,145.70055189999403,145.70055189999403,145.70055189999403,148.70014669999364,148.70014669999364,None,148.70014669999364,149.714536399988,,,,,,540650,001,2023-05-29_00h39.20.399,pareidolia,2023.1.2,59.46508775397142,
images/AF - girl 1.png,y,,,,,,,0,32,32,21,,,,,,,,,,,,,,,,,,,,,,,,,149.714536399988,150.20101299999806,150.20101299999806,150.2171696999867,153.2002458999923,153.2002458999923,None,153.2002458999923,154.2151038999873,,,,,,540650,001,2023-05-29_00h39.20.399,pareidolia,2023.1.2,59.46508775397142,
images/NF - Elec-Plug.jpg,n,,,,,,,0,33,33,10,,,,,,,,,,,,,,,,,,,,,,,,,154.2151038999873,154.70085139998992,154.70085139998992,154.71809519999078,157.70329809999384,157.70329809999384,None,157.70329809999384,,,,,,,540650,001,2023-05-29_00h39.20.399,pareidolia,2023.1.2,59.46508775397142,
images/F - Elec-Plug.jpg,y,,,,,,,0,34,34,2,,,,,,,,,,,,,,,,,,,,,,,,,158.73714899999322,159.20042289998673,159.20042289998673,159.25064849999035,162.20084579999093,162.20084579999093,None,162.20084579999093,163.2009498999978,,,,,,540650,001,2023-05-29_00h39.20.399,pareidolia,2023.1.2,59.46508775397142,
images/NF - Mugs.jpg,n,,,,,,,0,35,35,16,,,,,,,,,,,,,,,,,,,,,,,,,163.2009498999978,163.68239649999305,163.68239649999305,163.71714039999642,166.68622719999985,166.68622719999985,None,166.7008305999916,167.715950599988,,,,,,540650,001,2023-05-29_00h39.20.399,pareidolia,2023.1.2,59.46508775397142,
images/ANF - Panda.jpg,n,,,,,,,0,36,36,43,,,,,,,,,,,,,,,,,,,,,,,,,167.715950599988,168.20082859999093,168.20082859999093,168.2176926999964,171.2005508000002,171.2005508000002,None,171.2005508000002,172.20059290000063,,,,,,540650,001,2023-05-29_00h39.20.399,pareidolia,2023.1.2,59.46508775397142,
images/F - Tiang.jpg,y,,,,,,,0,37,37,5,,,,,,,,,,,,,,,,,,,,,,,,,172.20059290000063,172.68196949998674,172.68196949998674,172.71772699999565,175.68674949998967,175.68674949998967,None,175.68674949998967,176.69964469999832,,,,,,540650,001,2023-05-29_00h39.20.399,pareidolia,2023.1.2,59.46508775397142,
images/NF - Vege.png,n,,,,,,,0,38,38,19,,,,,,,,,,,,,,,,,,,,,,,,,176.69964469999832,177.19999429999734,177.19999429999734,177.19999429999734,180.1999463999964,180.1999463999964,None,180.1999463999964,181.20100109999476,,,,,,540650,001,2023-05-29_00h39.20.399,pareidolia,2023.1.2,59.46508775397142,
images/F - Mugs.jpg,y,,,,,,,0,39,39,3,,,,,,,,,,,,,,,,,,,,,,,,,181.20100109999476,181.68479379999917,181.68479379999917,181.70139379998727,184.68437069999345,184.68437069999345,None,184.70234379998874,,,,,,,540650,001,2023-05-29_00h39.20.399,pareidolia,2023.1.2,59.46508775397142,
images/ANF - knight.png,n,,,,,,,0,40,40,34,,,,,,,,,,,,,,,,,,,,,,,,,185.7321796999895,186.20081879998907,186.20081879998907,186.23475049999251,189.20038169999316,189.20038169999316,None,189.20038169999316,190.21944889999577,,,,,,540650,001,2023-05-29_00h39.20.399,pareidolia,2023.1.2,59.46508775397142,
images/AF - girl 2.png,y,,,,,,,0,41,41,22,,,,,,,,,,,,,,,,,,,,,,,,,190.21944889999577,190.70363389998965,190.70363389998965,190.71828899999673,,,None,193.71793199999956,,,,,,,540650,001,2023-05-29_00h39.20.399,pareidolia,2023.1.2,59.46508775397142,
images/AF - Otter.jpg,y,,,,,,,0,42,42,28,,,,,,,,,,,,,,,,,,,,,,,,,194.73204740000074,195.20122109999647,195.20122109999647,195.23442499998782,198.20059249999758,198.20059249999758,None,198.20059249999758,199.21798799998942,,,,,,540650,001,2023-05-29_00h39.20.399,pareidolia,2023.1.2,59.46508775397142,
images/ANF - girl 2.png,n,,,,,,,0,43,43,41,,,,,,,,,,,,,,,,,,,,,,,,,199.21798799998942,199.70365999999922,199.70365999999922,199.7160692999896,,,None,202.71575489999668,,,,,,,540650,001,2023-05-29_00h39.20.399,pareidolia,2023.1.2,59.46508775397142,
,,,,,,,,,,,,,,,,,,,,,,,,,,,,,,,,,,,,,,,,,,,,,,203.71787349999067,203.71787349999067,y,3.8116464000195265,540650,001,2023-05-29_00h39.20.399,pareidolia,2023.1.2,59.46508775397142,
