stimuli_images,face,demoReps.thisRepN,demoReps.thisTrialN,demoReps.thisN,demoReps.thisIndex,stimuli,demo_face,trials.thisRepN,trials.thisTrialN,trials.thisN,trials.thisIndex,Instruction.started,instruction_resp.started,instruction_resp.keys,instruction_resp.rt,startDemo.started,demoInstruction.started,startDemo.stopped,demoInstruction.stopped,demoFixation.started,demoFixation.stopped,demoImage.started,demoResp.started,demoResp.keys,demoResp.rt,Feedback.started,Feedback.stopped,demoLoop.started,demoLoopResp.started,demoLoopResp.keys,demoLoopResp.rt,ExpInstruc.started,continueExp.started,continueExp.keys,continueExp.rt,fixation.started,expImg.started,exp_resp.started,fixation.stopped,exp_resp.keys,expFeedback.started,expImg.stopped,exp_resp.stopped,expFeedback.stopped,exp_resp.rt,participant,session,date,expName,psychopyVersion,frameRate,
,,,,,,,,,,,,12.922743300005095,12.922743300005095,y,0.518948700002511,,,,,,,,,,,,,,,,,,,,,,,,,,,,,,,753708,001,2023-05-29_00h16.00.247,pareidolia,2023.1.2,60.17263528822907,
,,,,,,,,,,,,,,,,13.740280600002734,14.457859700007248,14.741135000003851,15.457770799999707,15.457770799999707,15.957942000008188,15.957942000008188,15.957942000008188,y,0.42501310000079684,16.54121710000618,17.54122759999882,17.54122759999882,17.54122759999882,y,0.3271390000008978,18.03865709999809,18.03865709999809,y,0.9398671999952057,,,,,,,,,,,753708,001,2023-05-29_00h16.00.247,pareidolia,2023.1.2,60.17263528822907,
images/F - Bag.jpg,y,,,,,,,0,0,0,0,,,,,,,,,,,,,,,,,,,,,,,,,19.049702400006936,19.513147200006642,19.513147200006642,19.558807399997022,None,22.524115299995174,,,,,753708,001,2023-05-29_00h16.00.247,pareidolia,2023.1.2,60.17263528822907,
images/NF - House.jpg,n,,,,,,,0,1,1,14,,,,,,,,,,,,,,,,,,,,,,,,,23.543476399994688,24.00799410000036,24.00799410000036,24.058080200004042,None,27.007959599999595,27.007959599999595,27.007959599999595,28.034572799995658,,753708,001,2023-05-29_00h16.00.247,pareidolia,2023.1.2,60.17263528822907,
images/F - Chilli.png,y,,,,,,,0,2,2,37,,,,,,,,,,,,,,,,,,,,,,,,,28.034572799995658,28.50825579999946,28.50825579999946,28.541079200003878,None,31.507766399998218,31.507766399998218,31.507766399998218,32.547344699996756,,753708,001,2023-05-29_00h16.00.247,pareidolia,2023.1.2,60.17263528822907,
images/AF - Knight.png,y,,,,,,,0,3,3,27,,,,,,,,,,,,,,,,,,,,,,,,,32.547344699996756,33.008076800004346,33.008076800004346,33.05897840000398,None,36.00784220000787,36.00784220000787,36.00784220000787,37.02767409999797,,753708,001,2023-05-29_00h16.00.247,pareidolia,2023.1.2,60.17263528822907,
images/NF - Elec-Plug.jpg,n,,,,,,,0,4,4,10,,,,,,,,,,,,,,,,,,,,,,,,,37.02767409999797,37.50818669999717,37.50818669999717,37.54205279999587,None,40.508402100007515,40.508402100007515,40.508402100007515,41.54455629999575,,753708,001,2023-05-29_00h16.00.247,pareidolia,2023.1.2,60.17263528822907,
images/ANF - knight.png,n,,,,,,,0,5,5,34,,,,,,,,,,,,,,,,,,,,,,,,,41.54455629999575,41.99220010000863,41.99220010000863,42.05992729999707,None,44.99209709999559,44.99209709999559,44.99209709999559,46.023025600006804,,753708,001,2023-05-29_00h16.00.247,pareidolia,2023.1.2,60.17263528822907,
images/AF - Panda.jpg,y,,,,,,,0,6,6,29,,,,,,,,,,,,,,,,,,,,,,,,,46.023025600006804,46.49164799999562,46.49164799999562,46.525120499994955,None,49.49163289999706,49.49163289999706,49.49163289999706,50.51559989999805,,753708,001,2023-05-29_00h16.00.247,pareidolia,2023.1.2,60.17263528822907,
images/AF - Duck.png,y,,,,,,,0,7,7,25,,,,,,,,,,,,,,,,,,,,,,,,,50.51559989999805,50.992070000007516,50.992070000007516,51.02496280000196,None,53.991310299999896,53.991310299999896,53.991310299999896,55.0198381000082,,753708,001,2023-05-29_00h16.00.247,pareidolia,2023.1.2,60.17263528822907,
images/NF - Tree.jpg,n,,,,,,,0,8,8,15,,,,,,,,,,,,,,,,,,,,,,,,,55.0198381000082,55.49162929999875,55.49162929999875,55.525119600002654,None,58.492314500006614,58.492314500006614,58.492314500006614,59.50656850000087,,753708,001,2023-05-29_00h16.00.247,pareidolia,2023.1.2,60.17263528822907,
images/NF - Bag.jpg,n,,,,,,,0,9,9,12,,,,,,,,,,,,,,,,,,,,,,,,,59.50656850000087,59.99185489999945,59.99185489999945,60.00760769999761,None,63.007684600001085,62.99133380000421,62.99133380000421,64.04302019999886,,753708,001,2023-05-29_00h16.00.247,pareidolia,2023.1.2,60.17263528822907,
images/AF - Otter.jpg,y,,,,,,,0,10,10,28,,,,,,,,,,,,,,,,,,,,,,,,,64.04302019999886,64.49210580000363,64.49210580000363,64.54203159999452,None,67.49151819999679,67.49151819999679,67.49151819999679,68.50643389999459,,753708,001,2023-05-29_00h16.00.247,pareidolia,2023.1.2,60.17263528822907,
images/NF - Bag 2.jpg,n,,,,,,,0,11,11,11,,,,,,,,,,,,,,,,,,,,,,,,,68.50643389999459,68.99832929999684,68.99832929999684,69.01427010000043,None,72.00891960000445,72.00891960000445,72.00891960000445,73.03436330000113,,753708,001,2023-05-29_00h16.00.247,pareidolia,2023.1.2,60.17263528822907,
images/AF - girl 1.png,y,,,,,,,0,12,12,21,,,,,,,,,,,,,,,,,,,,,,,,,73.03436330000113,73.5083547999966,73.5083547999966,73.54141810000874,None,76.50802199999453,76.50802199999453,76.50802199999453,77.52268419999746,,753708,001,2023-05-29_00h16.00.247,pareidolia,2023.1.2,60.17263528822907,
images/ANF - Otter.jpg,n,,,,,,,0,13,13,35,,,,,,,,,,,,,,,,,,,,,,,,,77.52268419999746,77.99224560000584,77.99224560000584,78.02503449999494,None,80.99171729999944,80.99171729999944,80.99171729999944,82.00774309999542,,753708,001,2023-05-29_00h16.00.247,pareidolia,2023.1.2,60.17263528822907,
images/AF - Fox.jpg,y,,,,,,,0,14,14,26,,,,,,,,,,,,,,,,,,,,,,,,,82.00774309999542,82.49194570000691,82.49194570000691,82.50850799999898,None,85.49202679999871,85.49202679999871,85.49202679999871,86.50909639999736,,753708,001,2023-05-29_00h16.00.247,pareidolia,2023.1.2,60.17263528822907,
images/ANF - Cat.jpg,n,,,,,,,0,15,15,31,,,,,,,,,,,,,,,,,,,,,,,,,86.50909639999736,86.99239610000222,86.99239610000222,87.00848489999771,None,89.9916768999974,89.9916768999974,89.9916768999974,91.03575080000155,,753708,001,2023-05-29_00h16.00.247,pareidolia,2023.1.2,60.17263528822907,
images/ANF- Dance.png,n,,,,,,,0,16,16,36,,,,,,,,,,,,,,,,,,,,,,,,,91.03575080000155,91.4924183999974,91.4924183999974,91.54226780000317,None,94.49189330000081,94.49189330000081,94.49189330000081,95.5064463000017,,753708,001,2023-05-29_00h16.00.247,pareidolia,2023.1.2,60.17263528822907,
images/ANF - girl 1.png,n,,,,,,,0,17,17,33,,,,,,,,,,,,,,,,,,,,,,,,,95.5064463000017,95.99192970000149,95.99192970000149,96.00864549999824,None,98.99154440000711,98.99154440000711,98.99154440000711,100.18270689999918,,753708,001,2023-05-29_00h16.00.247,pareidolia,2023.1.2,60.17263528822907,
images/ANF - Aquamarine.png,n,,,,,,,0,18,18,39,,,,,,,,,,,,,,,,,,,,,,,,,100.18270689999918,100.49207010000828,100.49207010000828,100.69296280000708,None,103.49227119999705,103.49227119999705,103.49227119999705,104.50821450000512,,753708,001,2023-05-29_00h16.00.247,pareidolia,2023.1.2,60.17263528822907,
images/AF - Cat.jpg,y,,,,,,,0,19,19,24,,,,,,,,,,,,,,,,,,,,,,,,,104.50821450000512,104.9920667999977,104.9920667999977,105.00842559999728,None,107.9918359000003,107.9918359000003,107.9918359000003,109.16304880000826,,753708,001,2023-05-29_00h16.00.247,pareidolia,2023.1.2,60.17263528822907,
images/AF - Aquamarine.png,y,,,,,,,0,20,20,20,,,,,,,,,,,,,,,,,,,,,,,,,109.16304880000826,109.49258360000385,109.49258360000385,109.67586980000488,None,112.4917518000002,112.4917518000002,112.4917518000002,113.50691759999609,,753708,001,2023-05-29_00h16.00.247,pareidolia,2023.1.2,60.17263528822907,
images/ANF - Fox.jpg,n,,,,,,,0,21,21,32,,,,,,,,,,,,,,,,,,,,,,,,,113.50691759999609,113.99187040000106,113.99187040000106,114.00873570000113,None,116.99202190000506,116.99202190000506,116.99202190000506,118.00704700000642,,753708,001,2023-05-29_00h16.00.247,pareidolia,2023.1.2,60.17263528822907,
images/NF - Tiang.jpg,n,,,,,,,0,22,22,18,,,,,,,,,,,,,,,,,,,,,,,,,118.00704700000642,118.49220989999594,118.49220989999594,118.50926069999696,None,121.4919751999987,121.4919751999987,121.4919751999987,122.54908969999815,,753708,001,2023-05-29_00h16.00.247,pareidolia,2023.1.2,60.17263528822907,
images/ANF - girl 2.png,n,,,,,,,0,23,23,41,,,,,,,,,,,,,,,,,,,,,,,,,122.54908969999815,122.99226970000018,122.99226970000018,123.05928020000283,None,125.99182189999556,125.99182189999556,125.99182189999556,127.04813009999634,,753708,001,2023-05-29_00h16.00.247,pareidolia,2023.1.2,60.17263528822907,
images/F - Elec-Plug.jpg,y,,,,,,,0,24,24,2,,,,,,,,,,,,,,,,,,,,,,,,,127.04813009999634,127.4928268000076,127.4928268000076,127.55980380000256,None,130.49226929999713,130.49226929999713,130.49226929999713,131.5070560000022,,753708,001,2023-05-29_00h16.00.247,pareidolia,2023.1.2,60.17263528822907,
images/F - Tiang.jpg,y,,,,,,,0,25,25,5,,,,,,,,,,,,,,,,,,,,,,,,,131.5070560000022,131.99248509999597,131.99248509999597,132.00872589999926,None,134.99340950000624,134.99340950000624,134.99340950000624,,,753708,001,2023-05-29_00h16.00.247,pareidolia,2023.1.2,60.17263528822907,
images/AF- Dance.png,y,,,,,,,0,26,26,30,,,,,,,,,,,,,,,,,,,,,,,,,136.0467992000049,136.49244840000756,136.49244840000756,136.5602341000049,None,139.49204549999558,139.49204549999558,139.49204549999558,140.53345170000102,,753708,001,2023-05-29_00h16.00.247,pareidolia,2023.1.2,60.17263528822907,
images/NF - Vege.png,n,,,,,,,0,27,27,19,,,,,,,,,,,,,,,,,,,,,,,,,140.53345170000102,140.99330410000402,140.99330410000402,141.04276050000044,None,143.99278929999855,143.99278929999855,143.99278929999855,145.0113943000033,,753708,001,2023-05-29_00h16.00.247,pareidolia,2023.1.2,60.17263528822907,
images/F - Bag 2.jpg,y,,,,,,,0,28,28,7,,,,,,,,,,,,,,,,,,,,,,,,,145.0113943000033,145.49312519999512,145.49312519999512,145.52631190000102,None,148.4925396000035,148.4925396000035,148.4925396000035,149.50783470000897,,753708,001,2023-05-29_00h16.00.247,pareidolia,2023.1.2,60.17263528822907,
images/NF - Mugs.jpg,n,,,,,,,0,29,29,16,,,,,,,,,,,,,,,,,,,,,,,,,149.50783470000897,149.9928602,149.9928602,150.00960190000478,None,152.99258869999903,152.99258869999903,152.99258869999903,154.00727289999486,,753708,001,2023-05-29_00h16.00.247,pareidolia,2023.1.2,60.17263528822907,
images/NF - Coffee.jpg,n,,,,,,,0,30,30,13,,,,,,,,,,,,,,,,,,,,,,,,,154.00727289999486,154.4929742999957,154.4929742999957,154.5096002000064,None,157.49325490000774,157.49325490000774,157.49325490000774,158.5091795000044,,753708,001,2023-05-29_00h16.00.247,pareidolia,2023.1.2,60.17263528822907,
images/F - Vege.jpg,y,,,,,,,0,31,31,9,,,,,,,,,,,,,,,,,,,,,,,,,158.5091795000044,158.99337419999938,158.99337419999938,159.0096976000059,None,161.99280290000024,161.99280290000024,161.99280290000024,163.00764350000827,,753708,001,2023-05-29_00h16.00.247,pareidolia,2023.1.2,60.17263528822907,
images/ANF - Duck.png,n,,,,,,,0,32,32,40,,,,,,,,,,,,,,,,,,,,,,,,,163.00764350000827,163.49351549999847,163.49351549999847,163.5098994,None,166.49297279999882,166.49297279999882,166.49297279999882,167.5283025999961,,753708,001,2023-05-29_00h16.00.247,pareidolia,2023.1.2,60.17263528822907,
images/NF - Chilli.png,n,,,,,,,0,33,33,38,,,,,,,,,,,,,,,,,,,,,,,,,167.5283025999961,167.99321939999936,167.99321939999936,168.0432409000059,None,170.993223700003,170.993223700003,170.993223700003,172.00790749999578,,753708,001,2023-05-29_00h16.00.247,pareidolia,2023.1.2,60.17263528822907,
images/F - Mugs.jpg,y,,,,,,,0,34,34,3,,,,,,,,,,,,,,,,,,,,,,,,,172.00790749999578,172.4932986000058,172.4932986000058,172.51012740000442,None,175.49300280000898,175.49300280000898,175.49300280000898,176.520013500005,,753708,001,2023-05-29_00h16.00.247,pareidolia,2023.1.2,60.17263528822907,
images/F - Tree.jpg,y,,,,,,,0,35,35,6,,,,,,,,,,,,,,,,,,,,,,,,,176.520013500005,176.9935259000049,176.9935259000049,177.0265994000074,None,179.9931099999958,179.9931099999958,179.9931099999958,181.0520971000078,,753708,001,2023-05-29_00h16.00.247,pareidolia,2023.1.2,60.17263528822907,
images/F - House.jpg,y,,,,,,,0,36,36,8,,,,,,,,,,,,,,,,,,,,,,,,,181.0520971000078,181.49450650000654,181.49450650000654,181.5603451000061,None,184.49332180000783,184.49332180000783,184.49332180000783,185.50941240000247,,753708,001,2023-05-29_00h16.00.247,pareidolia,2023.1.2,60.17263528822907,
images/F - Onion.jpg,y,,,,,,,0,37,37,4,,,,,,,,,,,,,,,,,,,,,,,,,185.50941240000247,185.99357679999957,185.99357679999957,186.0100351000001,None,188.99315449999995,188.99315449999995,188.99315449999995,190.03323800000362,,753708,001,2023-05-29_00h16.00.247,pareidolia,2023.1.2,60.17263528822907,
images/F - Coffee.png,y,,,,,,,0,38,38,1,,,,,,,,,,,,,,,,,,,,,,,,,190.03323800000362,190.5082631999976,190.5082631999976,190.54327809999813,None,193.50971440000285,,,,,753708,001,2023-05-29_00h16.00.247,pareidolia,2023.1.2,60.17263528822907,
images/AF - girl 2.png,y,,,,,,,0,39,39,22,,,,,,,,,,,,,,,,,,,,,,,,,194.54882189999626,194.99400449999666,194.99400449999666,195.0600953999965,None,197.99413500000082,197.99413500000082,197.99413500000082,198.9942022000032,,753708,001,2023-05-29_00h16.00.247,pareidolia,2023.1.2,60.17263528822907,
images/NF - Onion.jpg,n,,,,,,,0,40,40,17,,,,,,,,,,,,,,,,,,,,,,,,,198.9942022000032,199.49384290000307,199.49384290000307,199.49384290000307,None,202.4933078000031,202.4933078000031,202.4933078000031,203.6831297000026,,753708,001,2023-05-29_00h16.00.247,pareidolia,2023.1.2,60.17263528822907,
images/AF - HoshinoAI.png,y,,,,,,,0,41,41,23,,,,,,,,,,,,,,,,,,,,,,,,,203.6831297000026,203.99430200000643,203.99430200000643,204.19375800000853,None,206.99289639999915,206.99289639999915,206.99289639999915,208.16527640000277,,753708,001,2023-05-29_00h16.00.247,pareidolia,2023.1.2,60.17263528822907,
images/ANF - HoshinoAI.png,n,,,,,,,0,42,42,42,,,,,,,,,,,,,,,,,,,,,,,,,208.16527640000277,208.49450499999512,208.49450499999512,208.67736070000683,None,211.49328419999802,211.49328419999802,211.49328419999802,212.52961440000217,,753708,001,2023-05-29_00h16.00.247,pareidolia,2023.1.2,60.17263528822907,
images/ANF - Panda.jpg,n,,,,,,,0,43,43,43,,,,,,,,,,,,,,,,,,,,,,,,,212.52961440000217,212.99383049999597,212.99383049999597,213.0437249999959,None,215.993214800008,215.993214800008,215.993214800008,217.01139149999653,,753708,001,2023-05-29_00h16.00.247,pareidolia,2023.1.2,60.17263528822907,
images/F - Bag.jpg,y,,,,,,,1,0,44,0,,,,,,,,,,,,,,,,,,,,,,,,,217.01139149999653,217.4937254999968,217.4937254999968,217.5105307000049,None,220.4931413000013,220.4931413000013,220.4931413000013,221.51078890000645,,753708,001,2023-05-29_00h16.00.247,pareidolia,2023.1.2,60.17263528822907,
images/NF - Elec-Plug.jpg,n,,,,,,,1,1,45,10,,,,,,,,,,,,,,,,,,,,,,,,,221.51078890000645,221.9940304000047,221.9940304000047,222.01056419999804,None,224.9935880999983,224.9935880999983,224.9935880999983,225.9937571000046,,753708,001,2023-05-29_00h16.00.247,pareidolia,2023.1.2,60.17263528822907,
images/NF - Coffee.jpg,n,,,,,,,1,2,46,13,,,,,,,,,,,,,,,,,,,,,,,,,225.9937571000046,226.49351139999635,226.49351139999635,226.49351139999635,None,229.49375880000298,229.49375880000298,229.49375880000298,230.5097320000059,,753708,001,2023-05-29_00h16.00.247,pareidolia,2023.1.2,60.17263528822907,
images/NF - Tree.jpg,n,,,,,,,1,3,47,15,,,,,,,,,,,,,,,,,,,,,,,,,230.5097320000059,230.99368899999536,230.99368899999536,231.01040329999523,None,233.9982294000074,233.9982294000074,233.9982294000074,,,753708,001,2023-05-29_00h16.00.247,pareidolia,2023.1.2,60.17263528822907,
images/ANF - knight.png,n,,,,,,,1,4,48,34,,,,,,,,,,,,,,,,,,,,,,,,,235.0315641000052,235.4943373999995,235.4943373999995,235.54356330000155,None,238.493558999995,238.493558999995,238.493558999995,239.49395089999598,,753708,001,2023-05-29_00h16.00.247,pareidolia,2023.1.2,60.17263528822907,
images/NF - Bag 2.jpg,n,,,,,,,1,5,49,11,,,,,,,,,,,,,,,,,,,,,,,,,239.49395089999598,239.9938206000079,239.9938206000079,239.9938206000079,None,242.9942774999945,242.9942774999945,242.9942774999945,244.00835160000133,,753708,001,2023-05-29_00h16.00.247,pareidolia,2023.1.2,60.17263528822907,
images/F - Tiang.jpg,y,,,,,,,1,6,50,5,,,,,,,,,,,,,,,,,,,,,,,,,244.00835160000133,244.49372110000695,244.49372110000695,244.51046570000472,None,247.49345199999516,247.49345199999516,247.49345199999516,248.49442770000314,,753708,001,2023-05-29_00h16.00.247,pareidolia,2023.1.2,60.17263528822907,
images/F - Vege.jpg,y,,,,,,,1,7,51,9,,,,,,,,,,,,,,,,,,,,,,,,,248.49442770000314,248.9998609000031,248.9998609000031,248.9998609000031,None,252.0102012999996,,,,,753708,001,2023-05-29_00h16.00.247,pareidolia,2023.1.2,60.17263528822907,
images/AF - Duck.png,y,,,,,,,1,8,52,25,,,,,,,,,,,,,,,,,,,,,,,,,253.026643899997,253.49406530000851,253.49406530000851,253.52740419999463,None,256.4936824000033,256.4936824000033,256.4936824000033,257.51023080000596,,753708,001,2023-05-29_00h16.00.247,pareidolia,2023.1.2,60.17263528822907,
images/F - Bag 2.jpg,y,,,,,,,1,9,53,7,,,,,,,,,,,,,,,,,,,,,,,,,257.51023080000596,257.99471680000715,257.99471680000715,258.01072510000085,None,260.9941136999987,260.9941136999987,260.9941136999987,261.994414700006,,753708,001,2023-05-29_00h16.00.247,pareidolia,2023.1.2,60.17263528822907,
images/NF - Mugs.jpg,n,,,,,,,1,10,54,16,,,,,,,,,,,,,,,,,,,,,,,,,261.994414700006,262.4937689000071,262.4937689000071,262.4937689000071,None,265.4941900999984,265.4941900999984,265.4941900999984,266.5144317000086,,753708,001,2023-05-29_00h16.00.247,pareidolia,2023.1.2,60.17263528822907,
images/AF - Otter.jpg,y,,,,,,,1,11,55,28,,,,,,,,,,,,,,,,,,,,,,,,,266.5144317000086,266.99433919999865,266.99433919999865,267.0274105999997,n,267.2443010999996,,,268.26148139999714,0.2303855000063777,753708,001,2023-05-29_00h16.00.247,pareidolia,2023.1.2,60.17263528822907,
images/ANF - Cat.jpg,n,,,,,,,1,12,56,31,,,,,,,,,,,,,,,,,,,,,,,,,268.26148139999714,268.7445377999975,268.7445377999975,268.76141920000373,n,268.8775253000058,,,269.89345709999907,0.10820650000823662,753708,001,2023-05-29_00h16.00.247,pareidolia,2023.1.2,60.17263528822907,
images/AF - Fox.jpg,y,,,,,,,1,13,57,26,,,,,,,,,,,,,,,,,,,,,,,,,269.89345709999907,270.37782680000237,270.37782680000237,270.3949704999977,n,270.5107083000039,,,271.5795780000044,0.1068368999985978,753708,001,2023-05-29_00h16.00.247,pareidolia,2023.1.2,60.17263528822907,
images/F - House.jpg,y,,,,,,,1,14,58,8,,,,,,,,,,,,,,,,,,,,,,,,,271.5795780000044,272.0116557000001,272.0116557000001,272.09493069999735,n,272.19432249999954,,,273.2107734000019,0.1597851999977138,753708,001,2023-05-29_00h16.00.247,pareidolia,2023.1.2,60.17263528822907,
images/F - Coffee.png,y,,,,,,,1,15,59,1,,,,,,,,,,,,,,,,,,,,,,,,,273.2107734000019,273.6949781000003,273.6949781000003,273.7117581000057,n,273.8945947000029,,,274.8948273999995,0.1693407999991905,753708,001,2023-05-29_00h16.00.247,pareidolia,2023.1.2,60.17263528822907,
images/ANF - Fox.jpg,n,,,,,,,1,16,60,32,,,,,,,,,,,,,,,,,,,,,,,,,274.8948273999995,275.39471239999693,275.39471239999693,275.39471239999693,n,275.42819010000676,,,276.4447704000049,0.016110399999888614,753708,001,2023-05-29_00h16.00.247,pareidolia,2023.1.2,60.17263528822907,
images/NF - House.jpg,n,,,,,,,1,17,61,14,,,,,,,,,,,,,,,,,,,,,,,,,276.4447704000049,276.92801920000056,276.92801920000056,276.94484809999994,n,276.97797740000533,,,278.1256323999987,0.02038340001308825,753708,001,2023-05-29_00h16.00.247,pareidolia,2023.1.2,60.17263528822907,
images/AF - Aquamarine.png,y,,,,,,,1,18,62,20,,,,,,,,,,,,,,,,,,,,,,,,,278.1256323999987,278.4791327999992,278.4791327999992,,n,278.5780199000001,,,279.7312507000024,0.06998420000309125,753708,001,2023-05-29_00h16.00.247,pareidolia,2023.1.2,60.17263528822907,
images/AF - HoshinoAI.png,y,,,,,,,1,19,63,23,,,,,,,,,,,,,,,,,,,,,,,,,279.7312507000024,280.079696300003,280.079696300003,,n,280.2110235,,,281.2387130999996,0.1096047000028193,753708,001,2023-05-29_00h16.00.247,pareidolia,2023.1.2,60.17263528822907,
images/AF - Knight.png,y,,,,,,,1,20,64,27,,,,,,,,,,,,,,,,,,,,,,,,,281.2387130999996,281.7119567000045,281.7119567000045,281.7446090000012,n,281.9112124999956,,,282.91149040000164,0.17852200000197627,753708,001,2023-05-29_00h16.00.247,pareidolia,2023.1.2,60.17263528822907,
images/NF - Onion.jpg,n,,,,,,,1,21,65,17,,,,,,,,,,,,,,,,,,,,,,,,,282.91149040000164,283.41134410000814,283.41134410000814,283.41134410000814,n,283.5115095000074,,,284.5115935000067,0.06821450000279583,753708,001,2023-05-29_00h16.00.247,pareidolia,2023.1.2,60.17263528822907,
images/NF - Bag.jpg,n,,,,,,,1,22,66,12,,,,,,,,,,,,,,,,,,,,,,,,,284.5115935000067,285.01158320000104,285.01158320000104,285.01158320000104,n,285.2278975000081,,,286.24278640000557,0.1860473999986425,753708,001,2023-05-29_00h16.00.247,pareidolia,2023.1.2,60.17263528822907,
images/ANF - girl 1.png,n,,,,,,,1,23,67,33,,,,,,,,,,,,,,,,,,,,,,,,,286.24278640000557,286.7294464000006,286.7294464000006,286.74488060000294,n,286.8781592000014,,,287.90078450000146,0.1291445999959251,753708,001,2023-05-29_00h16.00.247,pareidolia,2023.1.2,60.17263528822907,
images/NF - Chilli.png,n,,,,,,,1,24,68,38,,,,,,,,,,,,,,,,,,,,,,,,,287.90078450000146,288.37833669999964,288.37833669999964,288.41156970000884,n,288.4446445000067,,,289.4453155000083,0.036121299999649636,753708,001,2023-05-29_00h16.00.247,pareidolia,2023.1.2,60.17263528822907,
images/F - Mugs.jpg,y,,,,,,,1,25,69,3,,,,,,,,,,,,,,,,,,,,,,,,,289.4453155000083,289.9278731999948,289.9278731999948,289.94508610000776,n,290.0114276999957,,,291.0307349000068,0.05803600000217557,753708,001,2023-05-29_00h16.00.247,pareidolia,2023.1.2,60.17263528822907,
images/ANF - Panda.jpg,n,,,,,,,1,26,70,43,,,,,,,,,,,,,,,,,,,,,,,,,291.0307349000068,291.51156670000637,291.51156670000637,291.54519250000885,n,291.66157720000774,,,292.67729409999447,0.11759180000808556,753708,001,2023-05-29_00h16.00.247,pareidolia,2023.1.2,60.17263528822907,
images/AF - Cat.jpg,y,,,,,,,1,27,71,24,,,,,,,,,,,,,,,,,,,,,,,,,292.67729409999447,293.161497299996,293.161497299996,293.17837009999494,n,293.3122127999959,,,294.3495308999991,0.13069520000135526,753708,001,2023-05-29_00h16.00.247,pareidolia,2023.1.2,60.17263528822907,
images/F - Elec-Plug.jpg,y,,,,,,,1,28,72,2,,,,,,,,,,,,,,,,,,,,,,,,,294.3495308999991,294.8117595000076,294.8117595000076,294.86187999999675,n,295.01156009999977,,,296.1687185000046,0.16772930001025088,753708,001,2023-05-29_00h16.00.247,pareidolia,2023.1.2,60.17263528822907,
images/ANF - Aquamarine.png,n,,,,,,,1,29,73,39,,,,,,,,,,,,,,,,,,,,,,,,,296.1687185000046,296.5120915000007,296.5120915000007,,n,296.6119097000046,,,297.65461369999684,0.07686430000467226,753708,001,2023-05-29_00h16.00.247,pareidolia,2023.1.2,60.17263528822907,
images/AF - girl 2.png,y,,,,,,,1,30,74,22,,,,,,,,,,,,,,,,,,,,,,,,,297.65461369999684,298.111905400001,298.111905400001,298.16192460000457,n,298.29488980000315,,,299.32462840000517,0.15707889999612235,753708,001,2023-05-29_00h16.00.247,pareidolia,2023.1.2,60.17263528822907,
images/ANF- Dance.png,n,,,,,,,1,31,75,36,,,,,,,,,,,,,,,,,,,,,,,,,299.32462840000517,299.7952241000021,299.7952241000021,299.8289503999986,None,302.79467089999525,302.79467089999525,302.79467089999525,303.8113539000042,,753708,001,2023-05-29_00h16.00.247,pareidolia,2023.1.2,60.17263528822907,
images/AF - girl 1.png,y,,,,,,,1,32,76,21,,,,,,,,,,,,,,,,,,,,,,,,,303.8113539000042,304.29600090000895,304.29600090000895,304.31179249999695,None,307.3116635000042,,,,,753708,001,2023-05-29_00h16.00.247,pareidolia,2023.1.2,60.17263528822907,
images/ANF - Otter.jpg,n,,,,,,,1,33,77,35,,,,,,,,,,,,,,,,,,,,,,,,,308.3119299999962,308.80570910000824,308.80570910000824,308.841047599999,None,311.81103850000363,,,,,753708,001,2023-05-29_00h16.00.247,pareidolia,2023.1.2,60.17263528822907,
images/ANF - girl 2.png,n,,,,,,,1,34,78,41,,,,,,,,,,,,,,,,,,,,,,,,,312.8517099000019,313.29512680000335,313.29512680000335,313.36206110000785,None,316.2946366999968,316.2946366999968,316.2946366999968,317.3206091000029,,753708,001,2023-05-29_00h16.00.247,pareidolia,2023.1.2,60.17263528822907,
images/AF- Dance.png,y,,,,,,,1,35,79,30,,,,,,,,,,,,,,,,,,,,,,,,,317.3206091000029,317.7957540000061,317.7957540000061,317.828096199999,None,320.79540650000854,320.79540650000854,320.79540650000854,321.81439529999625,,753708,001,2023-05-29_00h16.00.247,pareidolia,2023.1.2,60.17263528822907,
images/F - Chilli.png,y,,,,,,,1,36,80,37,,,,,,,,,,,,,,,,,,,,,,,,,321.81439529999625,322.2786582999979,322.2786582999979,322.3286963999999,None,325.2780561999971,325.2780561999971,325.2780561999971,326.2981101000041,,753708,001,2023-05-29_00h16.00.247,pareidolia,2023.1.2,60.17263528822907,
images/NF - Vege.png,n,,,,,,,1,37,81,19,,,,,,,,,,,,,,,,,,,,,,,,,326.2981101000041,326.7951347000053,326.7951347000053,326.81139709999843,None,329.7948097000044,329.7948097000044,329.7948097000044,330.8117171000049,,753708,001,2023-05-29_00h16.00.247,pareidolia,2023.1.2,60.17263528822907,
images/F - Tree.jpg,y,,,,,,,1,38,82,6,,,,,,,,,,,,,,,,,,,,,,,,,330.8117171000049,331.29593300000124,331.29593300000124,331.3127819000074,None,334.29469609999796,334.29469609999796,334.29469609999796,335.44618600000103,,753708,001,2023-05-29_00h16.00.247,pareidolia,2023.1.2,60.17263528822907,
images/ANF - HoshinoAI.png,n,,,,,,,1,39,83,42,,,,,,,,,,,,,,,,,,,,,,,,,335.44618600000103,335.79531070000667,335.79531070000667,335.94530130000203,None,338.79492280000704,338.79492280000704,338.79492280000704,339.795481299996,,753708,001,2023-05-29_00h16.00.247,pareidolia,2023.1.2,60.17263528822907,
images/NF - Tiang.jpg,n,,,,,,,1,40,84,18,,,,,,,,,,,,,,,,,,,,,,,,,339.795481299996,340.2792066999973,340.2792066999973,340.2954527999973,None,343.29492149999714,343.2789699999994,343.2789699999994,344.3117110000021,,753708,001,2023-05-29_00h16.00.247,pareidolia,2023.1.2,60.17263528822907,
images/F - Onion.jpg,y,,,,,,,1,41,85,4,,,,,,,,,,,,,,,,,,,,,,,,,344.3117110000021,344.7953397999954,344.7953397999954,344.8129706000036,None,347.7949091000046,347.7949091000046,347.7949091000046,348.8141695999948,,753708,001,2023-05-29_00h16.00.247,pareidolia,2023.1.2,60.17263528822907,
images/AF - Panda.jpg,y,,,,,,,1,42,86,29,,,,,,,,,,,,,,,,,,,,,,,,,348.8141695999948,349.295844399996,349.295844399996,349.3290519000002,None,352.2952726000076,352.2952726000076,352.2952726000076,353.29582420000224,,753708,001,2023-05-29_00h16.00.247,pareidolia,2023.1.2,60.17263528822907,
images/ANF - Duck.png,n,,,,,,,1,43,87,40,,,,,,,,,,,,,,,,,,,,,,,,,353.29582420000224,353.79539620000287,353.79539620000287,353.79539620000287,None,356.79505440000503,356.79505440000503,356.79505440000503,357.8099046999996,,753708,001,2023-05-29_00h16.00.247,pareidolia,2023.1.2,60.17263528822907,
images/F - Tiang.jpg,y,,,,,,,2,0,88,5,,,,,,,,,,,,,,,,,,,,,,,,,357.8099046999996,358.2955332999991,358.2955332999991,358.3121123000019,None,361.2958262000029,361.2958262000029,361.2958262000029,362.31202330000815,,753708,001,2023-05-29_00h16.00.247,pareidolia,2023.1.2,60.17263528822907,
images/F - Chilli.png,y,,,,,,,2,1,89,37,,,,,,,,,,,,,,,,,,,,,,,,,362.31202330000815,362.79527479999524,362.79527479999524,362.8150253000058,None,365.79552899999544,365.79552899999544,365.79552899999544,366.8371118000068,,753708,001,2023-05-29_00h16.00.247,pareidolia,2023.1.2,60.17263528822907,
images/ANF - girl 2.png,n,,,,,,,2,2,90,41,,,,,,,,,,,,,,,,,,,,,,,,,366.8371118000068,367.2789407999953,367.2789407999953,367.3465836999967,None,370.27842060000694,370.27842060000694,370.27842060000694,371.2790357000049,,753708,001,2023-05-29_00h16.00.247,pareidolia,2023.1.2,60.17263528822907,
images/ANF - Otter.jpg,n,,,,,,,2,3,91,35,,,,,,,,,,,,,,,,,,,,,,,,,371.295331500005,371.7954274000076,371.7954274000076,371.7954274000076,None,374.79515030000766,374.79515030000766,374.79515030000766,375.81230220000725,,753708,001,2023-05-29_00h16.00.247,pareidolia,2023.1.2,60.17263528822907,
images/F - Coffee.png,y,,,,,,,2,4,92,1,,,,,,,,,,,,,,,,,,,,,,,,,375.81230220000725,376.2954904000071,376.2954904000071,376.3124042999989,None,379.2966061000043,379.2966061000043,379.2966061000043,380.3159689000022,,753708,001,2023-05-29_00h16.00.247,pareidolia,2023.1.2,60.17263528822907,
images/ANF - knight.png,n,,,,,,,2,5,93,34,,,,,,,,,,,,,,,,,,,,,,,,,380.3159689000022,380.7792158000084,380.7792158000084,380.83004529999744,None,383.77869170000486,383.77869170000486,383.77869170000486,384.93415169999935,,753708,001,2023-05-29_00h16.00.247,pareidolia,2023.1.2,60.17263528822907,
images/AF - HoshinoAI.png,y,,,,,,,2,6,94,23,,,,,,,,,,,,,,,,,,,,,,,,,384.93415169999935,385.2796664000052,385.2796664000052,385.4460276000027,None,388.2789610000036,388.2789610000036,388.2789610000036,389.3055355999968,,753708,001,2023-05-29_00h16.00.247,pareidolia,2023.1.2,60.17263528822907,
images/AF - Knight.png,y,,,,,,,2,7,95,27,,,,,,,,,,,,,,,,,,,,,,,,,389.3055355999968,389.7794764999999,389.7794764999999,389.81265029999486,None,392.77883160000783,392.77883160000783,392.77883160000783,393.8184620999964,,753708,001,2023-05-29_00h16.00.247,pareidolia,2023.1.2,60.17263528822907,
images/F - Elec-Plug.jpg,y,,,,,,,2,8,96,2,,,,,,,,,,,,,,,,,,,,,,,,,393.8184620999964,394.279303000003,394.279303000003,394.32934860000387,None,397.2787903999997,397.2787903999997,397.2787903999997,398.33723240000836,,753708,001,2023-05-29_00h16.00.247,pareidolia,2023.1.2,60.17263528822907,
images/F - House.jpg,y,,,,,,,2,9,97,8,,,,,,,,,,,,,,,,,,,,,,,,,398.33723240000836,398.77990470000077,398.77990470000077,398.84604489999765,None,401.7792189000029,401.7792189000029,401.7792189000029,402.77952789999836,,753708,001,2023-05-29_00h16.00.247,pareidolia,2023.1.2,60.17263528822907,
images/NF - Mugs.jpg,n,,,,,,,2,10,98,16,,,,,,,,,,,,,,,,,,,,,,,,,402.77952789999836,403.2796345999959,403.2796345999959,403.2796345999959,None,406.2794356999948,406.2794356999948,406.2794356999948,407.3033334000065,,753708,001,2023-05-29_00h16.00.247,pareidolia,2023.1.2,60.17263528822907,
images/AF- Dance.png,y,,,,,,,2,11,99,30,,,,,,,,,,,,,,,,,,,,,,,,,407.3033334000065,407.7794685999979,407.7794685999979,407.8129531000013,None,410.77949129999615,410.77949129999615,410.77949129999615,411.78031550000014,,753708,001,2023-05-29_00h16.00.247,pareidolia,2023.1.2,60.17263528822907,
images/ANF - girl 1.png,n,,,,,,,2,12,100,33,,,,,,,,,,,,,,,,,,,,,,,,,411.78031550000014,412.2791605999955,412.2791605999955,412.2791605999955,None,415.2793478999956,415.2793478999956,415.2793478999956,416.43446820000827,,753708,001,2023-05-29_00h16.00.247,pareidolia,2023.1.2,60.17263528822907,
images/ANF - Aquamarine.png,n,,,,,,,2,13,101,39,,,,,,,,,,,,,,,,,,,,,,,,,416.43446820000827,416.78002550000383,416.78002550000383,416.94723669999803,None,419.77936359999876,419.77936359999876,419.77936359999876,420.79549479999696,,753708,001,2023-05-29_00h16.00.247,pareidolia,2023.1.2,60.17263528822907,
images/F - Bag 2.jpg,y,,,,,,,2,14,102,7,,,,,,,,,,,,,,,,,,,,,,,,,420.79549479999696,421.28020190000825,421.28020190000825,421.29663959999743,None,424.2790857000073,424.2790857000073,424.2790857000073,425.2989428000001,,753708,001,2023-05-29_00h16.00.247,pareidolia,2023.1.2,60.17263528822907,
images/AF - Otter.jpg,y,,,,,,,2,15,103,28,,,,,,,,,,,,,,,,,,,,,,,,,425.2989428000001,425.7799479999958,425.7799479999958,425.81396790000144,None,428.7854975000082,428.7854975000082,428.7854975000082,,,753708,001,2023-05-29_00h16.00.247,pareidolia,2023.1.2,60.17263528822907,
images/NF - Coffee.jpg,n,,,,,,,2,16,104,13,,,,,,,,,,,,,,,,,,,,,,,,,429.79681889999483,430.27981340000406,430.27981340000406,430.2971530000068,None,433.27947540000605,433.27947540000605,433.27947540000605,434.29573759999766,,753708,001,2023-05-29_00h16.00.247,pareidolia,2023.1.2,60.17263528822907,
images/AF - Fox.jpg,y,,,,,,,2,17,105,26,,,,,,,,,,,,,,,,,,,,,,,,,434.29573759999766,434.7797500000015,434.7797500000015,434.79634349999833,None,437.7792688000045,437.7792688000045,437.7792688000045,438.7802498999954,,753708,001,2023-05-29_00h16.00.247,pareidolia,2023.1.2,60.17263528822907,
images/F - Mugs.jpg,y,,,,,,,2,18,106,3,,,,,,,,,,,,,,,,,,,,,,,,,438.7802498999954,439.28046259999974,439.28046259999974,439.28046259999974,None,442.2796757000033,442.2796757000033,442.2796757000033,443.295884799998,,753708,001,2023-05-29_00h16.00.247,pareidolia,2023.1.2,60.17263528822907,
images/F - Onion.jpg,y,,,,,,,2,19,107,4,,,,,,,,,,,,,,,,,,,,,,,,,443.295884799998,443.78015890000097,443.78015890000097,443.79679999999644,None,446.7795968999999,446.7795968999999,446.7795968999999,447.7798702,,753708,001,2023-05-29_00h16.00.247,pareidolia,2023.1.2,60.17263528822907,
images/NF - Onion.jpg,n,,,,,,,2,20,108,17,,,,,,,,,,,,,,,,,,,,,,,,,447.7798702,448.279875799999,448.279875799999,448.279875799999,None,451.2839394000039,451.2839394000039,451.2839394000039,,,753708,001,2023-05-29_00h16.00.247,pareidolia,2023.1.2,60.17263528822907,
images/NF - Tree.jpg,n,,,,,,,2,21,109,15,,,,,,,,,,,,,,,,,,,,,,,,,452.3133311999991,452.78027580000344,452.78027580000344,452.81333849999646,None,455.78001669999503,455.78001669999503,455.78001669999503,456.7802478000085,,753708,001,2023-05-29_00h16.00.247,pareidolia,2023.1.2,60.17263528822907,
images/NF - Bag 2.jpg,n,,,,,,,2,22,110,11,,,,,,,,,,,,,,,,,,,,,,,,,456.7802478000085,457.27994740000577,457.27994740000577,457.27994740000577,None,460.27994249999756,460.27994249999756,460.27994249999756,461.2800117000006,,753708,001,2023-05-29_00h16.00.247,pareidolia,2023.1.2,60.17263528822907,
images/NF - Bag.jpg,n,,,,,,,2,23,111,12,,,,,,,,,,,,,,,,,,,,,,,,,461.2800117000006,461.7800576000009,461.7800576000009,461.7800576000009,None,464.7803117000003,464.7803117000003,464.7803117000003,465.8031009999977,,753708,001,2023-05-29_00h16.00.247,pareidolia,2023.1.2,60.17263528822907,
images/ANF - Panda.jpg,n,,,,,,,2,24,112,43,,,,,,,,,,,,,,,,,,,,,,,,,465.8031009999977,466.2800627999968,466.2800627999968,466.3141906999954,None,469.2800777999946,469.2800777999946,469.2800777999946,470.4358396000025,,753708,001,2023-05-29_00h16.00.247,pareidolia,2023.1.2,60.17263528822907,
images/AF - Aquamarine.png,y,,,,,,,2,25,113,20,,,,,,,,,,,,,,,,,,,,,,,,,470.4358396000025,470.78066709999985,470.78066709999985,470.94952829999966,None,473.77990259999933,473.77990259999933,473.77990259999933,474.8027188999986,,753708,001,2023-05-29_00h16.00.247,pareidolia,2023.1.2,60.17263528822907,
images/NF - Chilli.png,n,,,,,,,2,26,114,38,,,,,,,,,,,,,,,,,,,,,,,,,474.8027188999986,475.28026559999853,475.28026559999853,475.31403140000475,None,478.2805531000049,478.2805531000049,478.2805531000049,479.2958324000065,,753708,001,2023-05-29_00h16.00.247,pareidolia,2023.1.2,60.17263528822907,
images/AF - Cat.jpg,y,,,,,,,2,27,115,24,,,,,,,,,,,,,,,,,,,,,,,,,479.2958324000065,479.78095349999785,479.78095349999785,479.79784230000223,None,482.78107470000396,482.78107470000396,482.78107470000396,483.7807559000066,,753708,001,2023-05-29_00h16.00.247,pareidolia,2023.1.2,60.17263528822907,
images/F - Vege.jpg,y,,,,,,,2,28,116,9,,,,,,,,,,,,,,,,,,,,,,,,,483.7807559000066,484.2806375000073,484.2806375000073,484.2806375000073,None,487.2801302000007,487.2801302000007,487.2801302000007,488.28037019999465,,753708,001,2023-05-29_00h16.00.247,pareidolia,2023.1.2,60.17263528822907,
images/ANF - Duck.png,n,,,,,,,2,29,117,40,,,,,,,,,,,,,,,,,,,,,,,,,488.28037019999465,488.7804007000086,488.7804007000086,488.7804007000086,None,491.78094769999734,491.78094769999734,491.78094769999734,492.7967115000065,,753708,001,2023-05-29_00h16.00.247,pareidolia,2023.1.2,60.17263528822907,
images/AF - girl 1.png,y,,,,,,,2,30,118,21,,,,,,,,,,,,,,,,,,,,,,,,,492.7967115000065,493.28114770000684,493.28114770000684,493.2971305999963,None,496.2804518000048,496.2804518000048,496.2804518000048,497.3325443000067,,753708,001,2023-05-29_00h16.00.247,pareidolia,2023.1.2,60.17263528822907,
images/AF - girl 2.png,y,,,,,,,2,31,119,22,,,,,,,,,,,,,,,,,,,,,,,,,497.3325443000067,497.7806869000051,497.7806869000051,497.8481457000016,None,500.78026580000005,500.78026580000005,500.78026580000005,501.79853410000214,,753708,001,2023-05-29_00h16.00.247,pareidolia,2023.1.2,60.17263528822907,
images/F - Bag.jpg,y,,,,,,,2,32,120,0,,,,,,,,,,,,,,,,,,,,,,,,,501.79853410000214,502.280602800005,502.280602800005,502.314197300002,None,505.2809050000069,505.2809050000069,505.2809050000069,506.4372455999983,,753708,001,2023-05-29_00h16.00.247,pareidolia,2023.1.2,60.17263528822907,
images/ANF - HoshinoAI.png,n,,,,,,,2,33,121,42,,,,,,,,,,,,,,,,,,,,,,,,,506.4372455999983,506.78126289999636,506.78126289999636,506.94803509999474,n,509.2974835000059,,,,2.4852029000030598,753708,001,2023-05-29_00h16.00.247,pareidolia,2023.1.2,60.17263528822907,
images/AF - Panda.jpg,y,,,,,,,2,34,122,29,,,,,,,,,,,,,,,,,,,,,,,,,510.3212709000072,510.79803400000674,510.79803400000674,510.83077620000404,n,510.98087159999704,,,511.99747220000427,0.16127270000288263,753708,001,2023-05-29_00h16.00.247,pareidolia,2023.1.2,60.17263528822907,
images/ANF - Cat.jpg,n,,,,,,,2,35,123,31,,,,,,,,,,,,,,,,,,,,,,,,,511.99747220000427,512.4810934999987,512.4810934999987,512.4973352000088,n,512.5479044999956,,,513.5644446000078,0.04983489999722224,753708,001,2023-05-29_00h16.00.247,pareidolia,2023.1.2,60.17263528822907,
images/NF - House.jpg,n,,,,,,,2,36,124,14,,,,,,,,,,,,,,,,,,,,,,,,,513.5644446000078,514.0481812000071,514.0481812000071,514.0641396999999,n,514.0972011999984,,,515.1281484000065,0.022922400006791577,753708,001,2023-05-29_00h16.00.247,pareidolia,2023.1.2,60.17263528822907,
images/ANF- Dance.png,n,,,,,,,2,37,125,36,,,,,,,,,,,,,,,,,,,,,,,,,515.1281484000065,515.5975775999977,515.5975775999977,515.6305397999968,n,515.6972670999967,,,516.7187026000029,0.06855660000292119,753708,001,2023-05-29_00h16.00.247,pareidolia,2023.1.2,60.17263528822907,
images/NF - Vege.png,n,,,,,,,2,38,126,19,,,,,,,,,,,,,,,,,,,,,,,,,516.7187026000029,517.1976107000082,517.1976107000082,517.2312800000072,n,517.3304707000061,,,518.3473464999988,0.10969699999259319,753708,001,2023-05-29_00h16.00.247,pareidolia,2023.1.2,60.17263528822907,
images/F - Tree.jpg,y,,,,,,,2,39,127,6,,,,,,,,,,,,,,,,,,,,,,,,,518.3473464999988,518.8307638999977,518.8307638999977,518.8474825000012,n,518.9976213000045,,,520.0141627999983,0.13634760001150426,753708,001,2023-05-29_00h16.00.247,pareidolia,2023.1.2,60.17263528822907,
images/NF - Elec-Plug.jpg,n,,,,,,,2,40,128,10,,,,,,,,,,,,,,,,,,,,,,,,,520.0141627999983,520.4979066999949,520.4979066999949,520.5144446000049,n,520.6978190000082,,,521.6978534000082,0.17191610000736546,753708,001,2023-05-29_00h16.00.247,pareidolia,2023.1.2,60.17263528822907,
images/ANF - Fox.jpg,n,,,,,,,2,41,129,32,,,,,,,,,,,,,,,,,,,,,,,,,521.6978534000082,522.197962899998,522.197962899998,522.197962899998,n,522.3147931999993,,,523.3299494999956,0.09368700000050012,753708,001,2023-05-29_00h16.00.247,pareidolia,2023.1.2,60.17263528822907,
images/AF - Duck.png,y,,,,,,,2,42,130,25,,,,,,,,,,,,,,,,,,,,,,,,,523.3299494999956,523.8143420999986,523.8143420999986,523.8311866000004,n,523.964229899997,,,524.9645523000072,0.1250478000001749,753708,001,2023-05-29_00h16.00.247,pareidolia,2023.1.2,60.17263528822907,
images/NF - Tiang.jpg,n,,,,,,,2,43,131,18,,,,,,,,,,,,,,,,,,,,,,,,,524.9645523000072,525.4643577999959,525.4643577999959,525.4643577999959,n,525.6807023000001,,,,0.19681050001236144,753708,001,2023-05-29_00h16.00.247,pareidolia,2023.1.2,60.17263528822907,
images/F - Mugs.jpg,y,,,,,,,3,0,132,3,,,,,,,,,,,,,,,,,,,,,,,,,526.6954037999967,527.1810651999986,527.1810651999986,527.1978315000015,n,527.2483753999986,,,528.2774310999957,0.03819639999710489,753708,001,2023-05-29_00h16.00.247,pareidolia,2023.1.2,60.17263528822907,
images/ANF- Dance.png,n,,,,,,,3,1,133,36,,,,,,,,,,,,,,,,,,,,,,,,,528.2774310999957,528.7479744000011,528.7479744000011,528.7816919000034,n,528.8307313999976,,,529.8659775999986,0.05445049999980256,753708,001,2023-05-29_00h16.00.247,pareidolia,2023.1.2,60.17263528822907,
images/ANF - Panda.jpg,n,,,,,,,3,2,134,43,,,,,,,,,,,,,,,,,,,,,,,,,529.8659775999986,530.3310991000035,530.3310991000035,530.3648652999982,n,530.3809369999944,,,531.4049350999994,0.030665300000691786,753708,001,2023-05-29_00h16.00.247,pareidolia,2023.1.2,60.17263528822907,
images/ANF - knight.png,n,,,,,,,3,3,135,34,,,,,,,,,,,,,,,,,,,,,,,,,531.4049350999994,531.8809689000045,531.8809689000045,531.9149608000007,n,532.2479617000063,,,533.2485263999988,0.3410312000050908,753708,001,2023-05-29_00h16.00.247,pareidolia,2023.1.2,60.17263528822907,
images/AF - Cat.jpg,y,,,,,,,3,4,136,24,,,,,,,,,,,,,,,,,,,,,,,,,533.2485263999988,533.7476840000018,533.7476840000018,533.7476840000018,n,533.8642824999988,,,534.890578999999,0.08522790001006797,753708,001,2023-05-29_00h16.00.247,pareidolia,2023.1.2,60.17263528822907,
images/AF - Knight.png,y,,,,,,,3,5,137,27,,,,,,,,,,,,,,,,,,,,,,,,,534.890578999999,535.3486517999991,535.3486517999991,535.3977621999948,n,535.480705199996,,,536.5161538999964,0.10630100000707898,753708,001,2023-05-29_00h16.00.247,pareidolia,2023.1.2,60.17263528822907,
images/NF - Chilli.png,n,,,,,,,3,6,138,38,,,,,,,,,,,,,,,,,,,,,,,,,536.5161538999964,536.9814995000052,536.9814995000052,537.0310026000079,n,537.1308967000077,,,538.1649474000005,0.12704659999872092,753708,001,2023-05-29_00h16.00.247,pareidolia,2023.1.2,60.17263528822907,
images/NF - Vege.png,n,,,,,,,3,7,139,19,,,,,,,,,,,,,,,,,,,,,,,,,538.1649474000005,538.6311018999986,538.6311018999986,538.6647285000072,n,538.6809388999973,,,539.8363708999968,0.03289780000341125,753708,001,2023-05-29_00h16.00.247,pareidolia,2023.1.2,60.17263528822907,
images/ANF - Aquamarine.png,n,,,,,,,3,8,140,39,,,,,,,,,,,,,,,,,,,,,,,,,539.8363708999968,540.1814983000077,540.1814983000077,540.3480434999947,n,540.3480434999947,,,541.3648840999958,0.14890479999303352,753708,001,2023-05-29_00h16.00.247,pareidolia,2023.1.2,60.17263528822907,
,,,,,,,,,,,,,,,,,,,,,,,,,,,,,,,,,,,,541.3648840999958,,,,,,,,,,,,,,,,
