stimuli_images,face,demoReps.thisRepN,demoReps.thisTrialN,demoReps.thisN,demoReps.thisIndex,stimuli,demo_face,trials.thisRepN,trials.thisTrialN,trials.thisN,trials.thisIndex,Instruction.started,instruction_resp.started,instruction_resp.keys,instruction_resp.rt,startDemo.started,demoInstruction.started,startDemo.stopped,demoFixation.started,demoInstruction.stopped,demoImage.started,demoResp.started,demoFixation.stopped,demoResp.keys,demoResp.rt,Feedback.started,Feedback.stopped,demoLoop.started,demoLoopResp.started,demoLoopResp.keys,demoLoopResp.rt,ExpInstruc.started,continueExp.started,continueExp.keys,continueExp.rt,fixation.started,expImg.started,exp_resp.started,fixation.stopped,expImg.stopped,exp_resp.stopped,exp_resp.keys,expFeedback.started,expFeedback.stopped,exp_resp.rt,goodbye.started,goodbye_resp.started,goodbye_resp.keys,goodbye_resp.rt,participant,session,date,expName,psychopyVersion,frameRate,
,,,,,,,,,,,,9.695323199994164,9.695323199994164,y,4.785176400007913,,,,,,,,,,,,,,,,,,,,,,,,,,,,,,,,,,,981665,001,2023-05-29_14h57.33.437,pareidolia,2023.1.2,59.951678941755894,
,,,,,,,,,,,,,,,,14.528670299972873,15.513135599991074,15.529755099996692,16.50058349999017,16.512989599985303,16.997364899987588,16.997364899987588,17.013501899986295,y,2.1412276000191923,19.16359559999546,20.16284489998361,20.16284489998361,20.16284489998361,y,5.418627100007143,25.613019999989774,25.613019999989774,y,2.398044100002153,,,,,,,,,,,,,,,981665,001,2023-05-29_14h57.33.437,pareidolia,2023.1.2,59.951678941755894,
images/NF - Object.jpg,y,,,,,,,0,0,0,46,,,,,,,,,,,,,,,,,,,,,,,,,28.066005099972244,28.53024339998956,28.53024339998956,28.58003969999845,31.530498999985866,31.530498999985866,None,31.530498999985866,32.52988659997936,,,,,,981665,001,2023-05-29_14h57.33.437,pareidolia,2023.1.2,59.951678941755894,
images/ANF - tiger.jpg,n,,,,,,,0,1,1,52,,,,,,,,,,,,,,,,,,,,,,,,,32.52988659997936,33.03056149999611,33.03056149999611,33.03056149999611,36.03028139998787,36.03028139998787,None,36.03028139998787,37.048951099975966,,,,,,981665,001,2023-05-29_14h57.33.437,pareidolia,2023.1.2,59.951678941755894,
images/NF - House.jpg,n,,,,,,,0,2,2,14,,,,,,,,,,,,,,,,,,,,,,,,,37.048951099975966,37.53047919998062,37.53047919998062,37.56362359999912,40.53010179998819,40.53010179998819,None,40.53010179998819,41.54770019999705,,,,,,981665,001,2023-05-29_14h57.33.437,pareidolia,2023.1.2,59.951678941755894,
images/AF - Fox.jpg,y,,,,,,,0,3,3,26,,,,,,,,,,,,,,,,,,,,,,,,,41.54770019999705,42.03081829997245,42.03081829997245,42.047120899980655,45.03076529997634,45.03076529997634,None,45.03076529997634,46.04948059999151,,,,,,981665,001,2023-05-29_14h57.33.437,pareidolia,2023.1.2,59.951678941755894,
images/NF - Chilli.png,n,,,,,,,0,4,4,38,,,,,,,,,,,,,,,,,,,,,,,,,46.04948059999151,46.51515249998192,46.51515249998192,46.564013199997135,49.51337529998273,49.51337529998273,None,49.51337529998273,50.52958279999439,,,,,,981665,001,2023-05-29_14h57.33.437,pareidolia,2023.1.2,59.951678941755894,
images/NF - Moon.png,y,,,,,,,0,5,5,47,,,,,,,,,,,,,,,,,,,,,,,,,50.52958279999439,51.03066910000052,51.03066910000052,51.03066910000052,54.03037839999888,54.03037839999888,None,54.03037839999888,55.06715329998406,,,,,,981665,001,2023-05-29_14h57.33.437,pareidolia,2023.1.2,59.951678941755894,
images/AF - Otter.jpg,y,,,,,,,0,6,6,28,,,,,,,,,,,,,,,,,,,,,,,,,55.06715329998406,55.53063579997979,55.53063579997979,55.581156399974134,58.53078489998006,58.53078489998006,None,58.53078489998006,59.547005999978865,,,,,,981665,001,2023-05-29_14h57.33.437,pareidolia,2023.1.2,59.951678941755894,
images/AF - Panda.jpg,y,,,,,,,0,7,7,29,,,,,,,,,,,,,,,,,,,,,,,,,59.547005999978865,60.03106569999363,60.03106569999363,60.04813379998086,63.030627100000856,63.030627100000856,None,63.030627100000856,64.04547339997953,,,,,,981665,001,2023-05-29_14h57.33.437,pareidolia,2023.1.2,59.951678941755894,
images/F - Mugs.jpg,y,,,,,,,0,8,8,3,,,,,,,,,,,,,,,,,,,,,,,,,64.04547339997953,64.51361689998885,64.51361689998885,64.54741889997968,67.51405129997875,67.51405129997875,None,67.51405129997875,68.61865409999155,,,,,,981665,001,2023-05-29_14h57.33.437,pareidolia,2023.1.2,59.951678941755894,
images/AF - HoshinoAI.png,y,,,,,,,0,9,9,23,,,,,,,,,,,,,,,,,,,,,,,,,68.61865409999155,69.01399089998449,69.01399089998449,69.13077279998106,72.01318579999497,72.01318579999497,None,72.01318579999497,73.04826049998519,,,,,,981665,001,2023-05-29_14h57.33.437,pareidolia,2023.1.2,59.951678941755894,
images/AF- Dance.png,y,,,,,,,0,10,10,30,,,,,,,,,,,,,,,,,,,,,,,,,73.04826049998519,73.53130750000128,73.53130750000128,73.54707179998513,76.53087219997542,76.53087219997542,None,76.53087219997542,77.5467626999889,,,,,,981665,001,2023-05-29_14h57.33.437,pareidolia,2023.1.2,59.951678941755894,
images/F - Moon.png,y,,,,,,,0,11,11,50,,,,,,,,,,,,,,,,,,,,,,,,,77.5467626999889,78.01402469997993,78.01402469997993,78.04753389998223,81.01379699999234,81.01379699999234,None,81.01379699999234,82.04661719998694,,,,,,981665,001,2023-05-29_14h57.33.437,pareidolia,2023.1.2,59.951678941755894,
images/F - Chilli.png,y,,,,,,,0,12,12,37,,,,,,,,,,,,,,,,,,,,,,,,,82.04661719998694,82.51423189998604,82.51423189998604,82.5477983999881,85.5142262999725,85.5142262999725,None,85.5142262999725,86.53025359997991,,,,,,981665,001,2023-05-29_14h57.33.437,pareidolia,2023.1.2,59.951678941755894,
images/F - Vege.jpg,y,,,,,,,0,13,13,9,,,,,,,,,,,,,,,,,,,,,,,,,86.53025359997991,87.01391799998237,87.01391799998237,87.03123159997631,,,y,88.24744779997854,89.26388669997687,1.214375999988988,,,,,981665,001,2023-05-29_14h57.33.437,pareidolia,2023.1.2,59.951678941755894,
images/AF - Knight.png,y,,,,,,,0,14,14,27,,,,,,,,,,,,,,,,,,,,,,,,,89.26388669997687,89.74792309998884,89.74792309998884,89.76473759999499,,,y,90.46398079997743,91.479642899998,0.6883864000265021,,,,,981665,001,2023-05-29_14h57.33.437,pareidolia,2023.1.2,59.951678941755894,
images/AF - Duck.png,y,,,,,,,0,15,15,25,,,,,,,,,,,,,,,,,,,,,,,,,91.479642899998,91.96416709999903,91.96416709999903,91.98106039999402,,,y,92.66440239999793,93.6791283999919,0.6738767999922857,,,,,981665,001,2023-05-29_14h57.33.437,pareidolia,2023.1.2,59.951678941755894,
images/ANF - girl 1.png,n,,,,,,,0,16,16,33,,,,,,,,,,,,,,,,,,,,,,,,,93.6791283999919,94.15244710000115,94.15244710000115,94.18576719998964,,,n,94.91817619997892,,0.7385688999784179,,,,,981665,001,2023-05-29_14h57.33.437,pareidolia,2023.1.2,59.951678941755894,
images/NF - Plant.png,y,,,,,,,0,17,17,45,,,,,,,,,,,,,,,,,,,,,,,,,95.93069399998058,96.4140629999747,96.4140629999747,96.43150099998456,,,n,97.38072499999544,98.41345569997793,0.9419857999891974,,,,,981665,001,2023-05-29_14h57.33.437,pareidolia,2023.1.2,59.951678941755894,
images/NF - Vege.png,n,,,,,,,0,18,18,19,,,,,,,,,,,,,,,,,,,,,,,,,98.41345569997793,98.86473319999641,98.86473319999641,98.91415619998588,,,n,99.9000573999947,,1.0076507999910973,,,,,981665,001,2023-05-29_14h57.33.437,pareidolia,2023.1.2,59.951678941755894,
images/ANF - Panda.jpg,n,,,,,,,0,19,19,43,,,,,,,,,,,,,,,,,,,,,,,,,100.95095679999213,101.39754139998695,101.39754139998695,101.46455639999476,,,y,102.59753169998294,103.61210439997376,1.1719467000220902,,,,,981665,001,2023-05-29_14h57.33.437,pareidolia,2023.1.2,59.951678941755894,
images/NF - Tiang.jpg,n,,,,,,,0,20,20,18,,,,,,,,,,,,,,,,,,,,,,,,,103.61210439997376,104.09788309998112,104.09788309998112,104.1141660999856,,,n,105.56429729997762,106.59853769998881,1.4336977000057232,,,,,981665,001,2023-05-29_14h57.33.437,pareidolia,2023.1.2,59.951678941755894,
images/F - Elec-Plug.jpg,y,,,,,,,0,21,21,2,,,,,,,,,,,,,,,,,,,,,,,,,106.59853769998881,107.04799069999717,107.04799069999717,107.10039809998125,,,y,107.83378889999585,,0.756942700012587,,,,,981665,001,2023-05-29_14h57.33.437,pareidolia,2023.1.2,59.951678941755894,
images/NF - Bag.jpg,n,,,,,,,0,22,22,12,,,,,,,,,,,,,,,,,,,,,,,,,108.84648300000117,109.33153969998239,109.33153969998239,109.34806759998901,,,n,110.21439309997368,,0.8631040000182111,,,,,981665,001,2023-05-29_14h57.33.437,pareidolia,2023.1.2,59.951678941755894,
images/NF - Onion.jpg,n,,,,,,,0,23,23,17,,,,,,,,,,,,,,,,,,,,,,,,,111.2333814999729,111.7149606999883,111.7149606999883,111.7477720999741,,,n,113.3476005999837,114.36411039999803,1.6024686000309885,,,,,981665,001,2023-05-29_14h57.33.437,pareidolia,2023.1.2,59.951678941755894,
images/F - Plant.png,y,,,,,,,0,24,24,48,,,,,,,,,,,,,,,,,,,,,,,,,114.36411039999803,114.84889429999748,114.84889429999748,114.86725329997716,,,y,115.74772519999533,116.76364149997244,0.8710262000095099,,,,,981665,001,2023-05-29_14h57.33.437,pareidolia,2023.1.2,59.951678941755894,
images/NF - Coffee.jpg,n,,,,,,,0,25,25,13,,,,,,,,,,,,,,,,,,,,,,,,,116.76364149997244,117.23184209997999,117.23184209997999,117.26488619999145,,,n,118.04858539998531,119.06373519997578,0.7900448000291362,,,,,981665,001,2023-05-29_14h57.33.437,pareidolia,2023.1.2,59.951678941755894,
images/AF - Sea.jpg,y,,,,,,,0,26,26,55,,,,,,,,,,,,,,,,,,,,,,,,,119.06373519997578,119.548126699985,119.548126699985,119.56471329997294,,,y,120.38138299999991,121.39789819999714,0.813353300007293,,,,,981665,001,2023-05-29_14h57.33.437,pareidolia,2023.1.2,59.951678941755894,
images/F - Bag.jpg,y,,,,,,,0,27,27,0,,,,,,,,,,,,,,,,,,,,,,,,,121.39789819999714,121.86499859998003,121.86499859998003,121.89811369997915,,,y,122.80062579998048,,0.9040057000238448,,,,,981665,001,2023-05-29_14h57.33.437,pareidolia,2023.1.2,59.951678941755894,
images/ANF- Dance.png,n,,,,,,,0,28,28,36,,,,,,,,,,,,,,,,,,,,,,,,,123.83459249997395,124.2987297999789,124.2987297999789,124.34812079998665,,,n,125.08159539999906,126.11596569998073,0.7602077999908943,,,,,981665,001,2023-05-29_14h57.33.437,pareidolia,2023.1.2,59.951678941755894,
images/AF - girl 2.png,y,,,,,,,0,29,29,22,,,,,,,,,,,,,,,,,,,,,,,,,126.11596569998073,126.58190269998158,126.58190269998158,126.61466089999885,,,y,127.25206909998087,,0.643742399988696,,,,,981665,001,2023-05-29_14h57.33.437,pareidolia,2023.1.2,59.951678941755894,
images/NF - Tree.jpg,n,,,,,,,0,30,30,15,,,,,,,,,,,,,,,,,,,,,,,,,128.28121139999712,128.74767620000057,128.74767620000057,128.7812315999763,,,n,129.56469719999586,130.5817446000001,0.7904760999954306,,,,,981665,001,2023-05-29_14h57.33.437,pareidolia,2023.1.2,59.951678941755894,
images/ANF - Cat.jpg,n,,,,,,,0,31,31,31,,,,,,,,,,,,,,,,,,,,,,,,,130.5817446000001,131.06520489999093,131.06520489999093,131.08126379997702,,,n,132.91774399997666,,1.8291009000095073,,,,,981665,001,2023-05-29_14h57.33.437,pareidolia,2023.1.2,59.951678941755894,
images/F - Bag 2.jpg,y,,,,,,,0,32,32,7,,,,,,,,,,,,,,,,,,,,,,,,,133.94612169999164,134.41413579997607,134.41413579997607,134.4474275999819,,,y,135.11499239999102,,0.6723295000265352,,,,,981665,001,2023-05-29_14h57.33.437,pareidolia,2023.1.2,59.951678941755894,
images/ANF - girl 2.png,n,,,,,,,0,33,33,41,,,,,,,,,,,,,,,,,,,,,,,,,136.14793680000002,136.61518869997235,136.61518869997235,136.64796159998514,,,n,137.74876849999418,,1.103252100001555,,,,,981665,001,2023-05-29_14h57.33.437,pareidolia,2023.1.2,59.951678941755894,
images/AF- Dog.jpg,y,,,,,,,0,34,34,56,,,,,,,,,,,,,,,,,,,,,,,,,138.82006289999117,139.25003639998613,139.25003639998613,139.33130869999877,,,y,140.18124689999968,141.1978756999888,0.9120128999929875,,,,,981665,001,2023-05-29_14h57.33.437,pareidolia,2023.1.2,59.951678941755894,
images/AF - girl 1.png,y,,,,,,,0,35,35,21,,,,,,,,,,,,,,,,,,,,,,,,,141.1978756999888,141.68162469999515,141.68162469999515,141.69709959998727,,,y,142.4147286999796,143.4311523999786,0.7071504000050481,,,,,981665,001,2023-05-29_14h57.33.437,pareidolia,2023.1.2,59.951678941755894,
images/ANF - Elephant.png,n,,,,,,,0,36,36,54,,,,,,,,,,,,,,,,,,,,,,,,,143.4311523999786,143.91539239999838,143.91539239999838,143.9326299999957,,,n,144.7488452999969,,0.8072758000053,,,,,981665,001,2023-05-29_14h57.33.437,pareidolia,2023.1.2,59.951678941755894,
images/F - Coffee.png,y,,,,,,,0,37,37,1,,,,,,,,,,,,,,,,,,,,,,,,,145.78110959997866,146.23245069998666,146.23245069998666,146.28243539997493,,,y,147.03107759999693,,0.7694831000117119,,,,,981665,001,2023-05-29_14h57.33.437,pareidolia,2023.1.2,59.951678941755894,
images/ANF - Duck.png,n,,,,,,,0,38,38,40,,,,,,,,,,,,,,,,,,,,,,,,,148.05060849999427,148.53172919998178,148.53172919998178,148.56433949997881,,,n,149.58158299999195,150.61994039997808,1.028101699979743,,,,,981665,001,2023-05-29_14h57.33.437,pareidolia,2023.1.2,59.951678941755894,
images/F - House.jpg,y,,,,,,,0,39,39,8,,,,,,,,,,,,,,,,,,,,,,,,,150.61994039997808,151.06538549999823,151.06538549999823,151.1313858999929,,,y,151.79831369998283,152.9025667999813,0.7003534000250511,,,,,981665,001,2023-05-29_14h57.33.437,pareidolia,2023.1.2,59.951678941755894,
images/AF - Aquamarine.png,y,,,,,,,0,40,40,20,,,,,,,,,,,,,,,,,,,,,,,,,152.9025667999813,153.29905799997505,153.29905799997505,153.41609389998484,,,y,154.11811109998962,,0.7870081000146456,,,,,981665,001,2023-05-29_14h57.33.437,pareidolia,2023.1.2,59.951678941755894,
images/F - Tree.jpg,y,,,,,,,0,41,41,6,,,,,,,,,,,,,,,,,,,,,,,,,155.14746969999396,155.6159323999891,155.6159323999891,155.64867799999774,,,y,156.54825359999086,157.58232069999212,0.9153466999996454,,,,,981665,001,2023-05-29_14h57.33.437,pareidolia,2023.1.2,59.951678941755894,
images/NF - Wall.jpg,y,,,,,,,0,42,42,44,,,,,,,,,,,,,,,,,,,,,,,,,157.58232069999212,158.04883529999643,158.04883529999643,158.0821357999812,,,n,158.99847849999787,,0.9312407999823336,,,,,981665,001,2023-05-29_14h57.33.437,pareidolia,2023.1.2,59.951678941755894,
images/ANF- Dog.jpg,n,,,,,,,0,43,43,51,,,,,,,,,,,,,,,,,,,,,,,,,160.01781759998994,160.49848299997393,160.49848299997393,160.53210389998276,,,y,161.1488102999865,162.16348099999595,0.6197245999937877,,,,,981665,001,2023-05-29_14h57.33.437,pareidolia,2023.1.2,59.951678941755894,
images/F - Tiang.jpg,y,,,,,,,0,44,44,5,,,,,,,,,,,,,,,,,,,,,,,,,162.16348099999595,162.64896639998187,162.64896639998187,162.66560959999333,,,y,163.28213499998674,164.2966273999773,0.6130827000015415,,,,,981665,001,2023-05-29_14h57.33.437,pareidolia,2023.1.2,59.951678941755894,
images/ANF - Fox.jpg,n,,,,,,,0,45,45,32,,,,,,,,,,,,,,,,,,,,,,,,,164.2966273999773,164.78206969998428,164.78206969998428,164.79865099999006,,,n,166.03300889997627,,1.2193275000026915,,,,,981665,001,2023-05-29_14h57.33.437,pareidolia,2023.1.2,59.951678941755894,
images/F - Onion.jpg,y,,,,,,,0,46,46,4,,,,,,,,,,,,,,,,,,,,,,,,,167.06424469998456,167.5319425999769,167.5319425999769,167.56505629999447,,,y,168.33626289997483,,0.7812608000240289,,,,,981665,001,2023-05-29_14h57.33.437,pareidolia,2023.1.2,59.951678941755894,
images/AF - tiger.jpg,y,,,,,,,0,47,47,57,,,,,,,,,,,,,,,,,,,,,,,,,169.36552369999117,169.8322042999789,169.8322042999789,169.86507659999188,,,y,170.51571199999307,171.53317009998136,0.6632768000126816,,,,,981665,001,2023-05-29_14h57.33.437,pareidolia,2023.1.2,59.951678941755894,
images/ANF - Sea.jpg,n,,,,,,,0,48,48,53,,,,,,,,,,,,,,,,,,,,,,,,,171.53317009998136,171.99958229999174,171.99958229999174,172.03194869999425,,,n,172.74851999999373,173.76699199998984,0.7289850000233855,,,,,981665,001,2023-05-29_14h57.33.437,pareidolia,2023.1.2,59.951678941755894,
images/ANF - knight.png,n,,,,,,,0,49,49,34,,,,,,,,,,,,,,,,,,,,,,,,,173.76699199998984,174.24872569998843,174.24872569998843,174.28180789999897,,,n,175.48199439997552,176.50139549997402,1.2055216000007931,,,,,981665,001,2023-05-29_14h57.33.437,pareidolia,2023.1.2,59.951678941755894,
images/F - Wall.png,y,,,,,,,0,50,50,58,,,,,,,,,,,,,,,,,,,,,,,,,176.50139549997402,176.98277339999913,176.98277339999913,177.015058399993,,,y,177.89900629999465,179.0519682999875,0.8865229999937583,,,,,981665,001,2023-05-29_14h57.33.437,pareidolia,2023.1.2,59.951678941755894,
images/ANF - HoshinoAI.png,n,,,,,,,0,51,51,42,,,,,,,,,,,,,,,,,,,,,,,,,179.0519682999875,179.39950589998625,179.39950589998625,179.5654421999934,,,n,180.2656747000001,181.2808385999815,0.8494804999791086,,,,,981665,001,2023-05-29_14h57.33.437,pareidolia,2023.1.2,59.951678941755894,
images/NF - Bag 2.jpg,n,,,,,,,0,52,52,11,,,,,,,,,,,,,,,,,,,,,,,,,181.2808385999815,181.7656267999846,181.7656267999846,181.78259859999525,,,n,182.665377599973,183.68071739998413,0.8822095000068657,,,,,981665,001,2023-05-29_14h57.33.437,pareidolia,2023.1.2,59.951678941755894,
images/ANF - Otter.jpg,n,,,,,,,0,53,53,35,,,,,,,,,,,,,,,,,,,,,,,,,183.68071739998413,184.16790059997584,184.16790059997584,184.18277369998395,,,n,184.86507099997834,185.9881709999754,0.6777755000221077,,,,,981665,001,2023-05-29_14h57.33.437,pareidolia,2023.1.2,59.951678941755894,
images/ANF - Aquamarine.png,n,,,,,,,0,54,54,39,,,,,,,,,,,,,,,,,,,,,,,,,185.9881709999754,186.365854499978,186.365854499978,186.49890469998354,,,n,187.06576569998288,188.099558899994,0.6818985000136308,,,,,981665,001,2023-05-29_14h57.33.437,pareidolia,2023.1.2,59.951678941755894,
images/NF - Elec-Plug.jpg,n,,,,,,,0,55,55,10,,,,,,,,,,,,,,,,,,,,,,,,,188.099558899994,188.56560019997414,188.56560019997414,188.59887399998843,,,n,189.6490912999725,190.66493109997828,1.063267600024119,,,,,981665,001,2023-05-29_14h57.33.437,pareidolia,2023.1.2,59.951678941755894,
images/F - Object.png,y,,,,,,,0,56,56,49,,,,,,,,,,,,,,,,,,,,,,,,,190.66493109997828,191.14928629997303,191.14928629997303,191.16534259999753,,,y,192.0984406999778,,0.9166345999983605,,,,,981665,001,2023-05-29_14h57.33.437,pareidolia,2023.1.2,59.951678941755894,
images/NF - Mugs.jpg,n,,,,,,,0,57,57,16,,,,,,,,,,,,,,,,,,,,,,,,,193.1180637999787,193.58506799998577,193.58506799998577,193.6324463999772,,,n,194.93207609999808,,1.320493000006536,,,,,981665,001,2023-05-29_14h57.33.437,pareidolia,2023.1.2,59.951678941755894,
images/AF - Cat.jpg,y,,,,,,,0,58,58,24,,,,,,,,,,,,,,,,,,,,,,,,,195.95186719999765,196.432373299991,196.432373299991,196.46599239998613,,,y,197.19870739997714,,0.7341778999834787,,,,,981665,001,2023-05-29_14h57.33.437,pareidolia,2023.1.2,59.951678941755894,
images/ANF - Cat.jpg,n,,,,,,,1,0,59,31,,,,,,,,,,,,,,,,,,,,,,,,,198.1997128999792,198.69931169998017,198.69931169998017,198.69931169998017,,,n,199.33222539999406,200.332304999989,0.6158158000034746,,,,,981665,001,2023-05-29_14h57.33.437,pareidolia,2023.1.2,59.951678941755894,
,,,,,,,,,,,,,,,,,,,,,,,,,,,,,,,,,,,,,,,,,,,,,,200.332304999989,200.332304999989,y,7.1319470000162255,981665,001,2023-05-29_14h57.33.437,pareidolia,2023.1.2,59.951678941755894,
